__experimentName,trials.thisIndex,condition_option_2,training_choice.rt,choices.keys,agent_option_2,a2_reward,a1_reward,__participant,date,next_key.keys,session,agent_option_1,expName,rewards,frameRate,next_key_2.rt,pairing,participant,training_choice.keys,condition,condition_option_1,trials.thisTrialN,trials.thisRepN,psychopyVersion,__datetime,att1_resp.keys,choices,OS,choices.duration,choices.rt,att_response,trials.thisN,att1_resp.rt,trials.ran,next_key.rt,next_key_2.keys,trial,__session
﻿study_1_pilot,,,,,,,,330292,2023-10-01_11h38.19.774,,65194c1079f190971947dcaf,,study_1,,29.41176470588235,,,60670075662d19e13a79d7e9,,color_flip,,,,2023.1.3,2023-10-01_11h38.15.457,,,MacIntel,,,,,,,,,,001
﻿study_1_pilot,,,,,,,,330292,2023-10-01_11h38.19.774,,65194c1079f190971947dcaf,,study_1,,29.41176470588235,,,60670075662d19e13a79d7e9,,,,,,2023.1.3,2023-10-01_11h38.15.457,,,MacIntel,,,,,,,,,,001
﻿study_1_pilot,,,,,,,,330292,2023-10-01_11h38.19.774,,65194c1079f190971947dcaf,,study_1,,29.41176470588235,,,60670075662d19e13a79d7e9,,,,,,2023.1.3,2023-10-01_11h38.15.457,,,MacIntel,,,,,,,,,,001
﻿study_1_pilot,,,,,,,,330292,2023-10-01_11h38.19.774,,65194c1079f190971947dcaf,,study_1,,29.41176470588235,,,60670075662d19e13a79d7e9,,,,,,2023.1.3,2023-10-01_11h38.15.457,,,MacIntel,,,,,,,,,,001
﻿study_1_pilot,,,,,,,,330292,2023-10-01_11h38.19.774,,65194c1079f190971947dcaf,,study_1,,29.41176470588235,,,60670075662d19e13a79d7e9,,,,,,2023.1.3,2023-10-01_11h38.15.457,,,MacIntel,,,,,,,,,,001
﻿study_1_pilot,,,,,,,,330292,2023-10-01_11h38.19.774,,65194c1079f190971947dcaf,,study_1,,29.41176470588235,,,60670075662d19e13a79d7e9,,,,,,2023.1.3,2023-10-01_11h38.15.457,,,MacIntel,,,,,,,,,,001
﻿study_1_pilot,,,,,,,,330292,2023-10-01_11h38.19.774,,65194c1079f190971947dcaf,,study_1,,29.41176470588235,,,60670075662d19e13a79d7e9,,,,,,2023.1.3,2023-10-01_11h38.15.457,,,MacIntel,,,,,,,,,,001
﻿study_1_pilot,,,,,,,,330292,2023-10-01_11h38.19.774,,65194c1079f190971947dcaf,,study_1,,29.41176470588235,,,60670075662d19e13a79d7e9,,,,,,2023.1.3,2023-10-01_11h38.15.457,,,MacIntel,,,,,,,,,,001
﻿study_1_pilot,,,,,,,,330292,2023-10-01_11h38.19.774,,65194c1079f190971947dcaf,,study_1,,29.41176470588235,,,60670075662d19e13a79d7e9,,,,,,2023.1.3,2023-10-01_11h38.15.457,,,MacIntel,,,,,,,,,,001
﻿study_1_pilot,,,,,,,,330292,2023-10-01_11h38.19.774,,65194c1079f190971947dcaf,,study_1,,29.41176470588235,,,60670075662d19e13a79d7e9,,,,,,2023.1.3,2023-10-01_11h38.15.457,,,MacIntel,,,,,,,,,,001
﻿study_1_pilot,,,,,,,,330292,2023-10-01_11h38.19.774,,65194c1079f190971947dcaf,,study_1,,29.41176470588235,,,60670075662d19e13a79d7e9,,,,,,2023.1.3,2023-10-01_11h38.15.457,,,MacIntel,,,,,,,,,,001
﻿study_1_pilot,,,,,,,,330292,2023-10-01_11h38.19.774,,65194c1079f190971947dcaf,,study_1,,29.41176470588235,,,60670075662d19e13a79d7e9,,,,,,2023.1.3,2023-10-01_11h38.15.457,,,MacIntel,,,,,,,,,,001
﻿study_1_pilot,,,,,,,,330292,2023-10-01_11h38.19.774,,65194c1079f190971947dcaf,,study_1,,29.41176470588235,,,60670075662d19e13a79d7e9,,,,,,2023.1.3,2023-10-01_11h38.15.457,,,MacIntel,,,,,,,,,,001
﻿study_1_pilot,,,,,,,,330292,2023-10-01_11h38.19.774,,65194c1079f190971947dcaf,,study_1,,29.41176470588235,,,60670075662d19e13a79d7e9,,,,,,2023.1.3,2023-10-01_11h38.15.457,,,MacIntel,,,,,,,,,,001
﻿study_1_pilot,,,,,,,,330292,2023-10-01_11h38.19.774,,65194c1079f190971947dcaf,,study_1,,29.41176470588235,,,60670075662d19e13a79d7e9,,,,,,2023.1.3,2023-10-01_11h38.15.457,,,MacIntel,,,,,,,,,,001
﻿study_1_pilot,,,,,,,,330292,2023-10-01_11h38.19.774,,65194c1079f190971947dcaf,,study_1,,29.41176470588235,,,60670075662d19e13a79d7e9,,,,,,2023.1.3,2023-10-01_11h38.15.457,,,MacIntel,,,,,,,,,,001
﻿study_1_pilot,,,,,,,,330292,2023-10-01_11h38.19.774,,65194c1079f190971947dcaf,,study_1,,29.41176470588235,,,60670075662d19e13a79d7e9,,,,,,2023.1.3,2023-10-01_11h38.15.457,,,MacIntel,,,,,,,,,,001
﻿study_1_pilot,,,,,,,,330292,2023-10-01_11h38.19.774,,65194c1079f190971947dcaf,,study_1,,29.41176470588235,,,60670075662d19e13a79d7e9,,,,,,2023.1.3,2023-10-01_11h38.15.457,,,MacIntel,,,,,,,,,,001
﻿study_1_pilot,,,,,,,,330292,2023-10-01_11h38.19.774,,65194c1079f190971947dcaf,,study_1,,29.41176470588235,,,60670075662d19e13a79d7e9,,,,,,2023.1.3,2023-10-01_11h38.15.457,,,MacIntel,,,,,,,,,,001
﻿study_1_pilot,,,,,,,,330292,2023-10-01_11h38.19.774,,65194c1079f190971947dcaf,,study_1,,29.41176470588235,,,60670075662d19e13a79d7e9,,,,,,2023.1.3,2023-10-01_11h38.15.457,,,MacIntel,,,,,,,,,,001
﻿study_1_pilot,,,,,,,,330292,2023-10-01_11h38.19.774,,65194c1079f190971947dcaf,,study_1,,29.41176470588235,,,60670075662d19e13a79d7e9,,,,,,2023.1.3,2023-10-01_11h38.15.457,,,MacIntel,,,,,,,,,,001
﻿study_1_pilot,,,,,,,,330292,2023-10-01_11h38.19.774,,65194c1079f190971947dcaf,,study_1,,29.41176470588235,,,60670075662d19e13a79d7e9,,,,,,2023.1.3,2023-10-01_11h38.15.457,,,MacIntel,,,,,,,,,,001
﻿study_1_pilot,,,5.892999999999972,,,,,330292,2023-10-01_11h38.19.774,,65194c1079f190971947dcaf,,study_1,,29.41176470588235,,,60670075662d19e13a79d7e9,2,,,,,2023.1.3,2023-10-01_11h38.15.457,,,MacIntel,,,,,,,,,,001
﻿study_1_pilot,,,,,,,,330292,2023-10-01_11h38.19.774,,65194c1079f190971947dcaf,,study_1,,29.41176470588235,11.004999999999995,,60670075662d19e13a79d7e9,,,,,,2023.1.3,2023-10-01_11h38.15.457,,,MacIntel,,,,,,,,space,,001
﻿study_1_pilot,,,,,,,,330292,2023-10-01_11h38.19.774,space,65194c1079f190971947dcaf,,study_1,,29.41176470588235,,,60670075662d19e13a79d7e9,,,,,,2023.1.3,2023-10-01_11h38.15.457,,,MacIntel,,,,,,,2.342000000000013,,,001
﻿study_1_pilot,,,,,,,,330292,2023-10-01_11h38.19.774,,65194c1079f190971947dcaf,,study_1,,29.41176470588235,,,60670075662d19e13a79d7e9,,,,,,2023.1.3,2023-10-01_11h38.15.457,2,,MacIntel,,,,,6.913000000000011,,,,,001
﻿study_1_pilot,,,,,,,,330292,2023-10-01_11h38.19.774,,65194c1079f190971947dcaf,,study_1,,29.41176470588235,,,60670075662d19e13a79d7e9,,,,,,2023.1.3,2023-10-01_11h38.15.457,,,MacIntel,,,2,,,,,,,001
﻿study_1_pilot,,,,,,,,330292,2023-10-01_11h38.19.774,,65194c1079f190971947dcaf,,study_1,,29.41176470588235,,,60670075662d19e13a79d7e9,,,,,,2023.1.3,2023-10-01_11h38.15.457,,,MacIntel,,,,,,,,,,001
﻿study_1_pilot,0,condition_2,,2,agent_2,4.28,3.32,330292,2023-10-01_11h38.19.774,,65194c1079f190971947dcaf,agent_1,study_1,4.28,29.41176470588235,,1:2+2:2,60670075662d19e13a79d7e9,,,condition_2,0,0,2023.1.3,2023-10-01_11h38.15.457,,2,MacIntel,,1.4849999999999852,,0,,1,,,1,001
﻿study_1_pilot,1,condition_2,,1,agent_2,6.54,4.46,330292,2023-10-01_11h38.19.774,,65194c1079f190971947dcaf,agent_1,study_1,4.46,29.41176470588235,,1:2+2:2,60670075662d19e13a79d7e9,,,condition_2,1,0,2023.1.3,2023-10-01_11h38.15.457,,1,MacIntel,,0.7960000000000207,,1,,1,,,2,001
﻿study_1_pilot,2,condition_2,,1,agent_2,5.85,4.54,330292,2023-10-01_11h38.19.774,,65194c1079f190971947dcaf,agent_1,study_1,4.54,29.41176470588235,,1:2+2:2,60670075662d19e13a79d7e9,,,condition_2,2,0,2023.1.3,2023-10-01_11h38.15.457,,1,MacIntel,,0.6169999999999902,,2,,1,,,3,001
﻿study_1_pilot,3,condition_2,,2,agent_2,5.8,2.66,330292,2023-10-01_11h38.19.774,,65194c1079f190971947dcaf,agent_1,study_1,5.8,29.41176470588235,,1:2+2:2,60670075662d19e13a79d7e9,,,condition_2,3,0,2023.1.3,2023-10-01_11h38.15.457,,2,MacIntel,,0.6949999999999932,,3,,1,,,4,001
﻿study_1_pilot,4,condition_2,,1,agent_2,4.66,1.92,330292,2023-10-01_11h38.19.774,,65194c1079f190971947dcaf,agent_1,study_1,1.92,29.41176470588235,,1:2+2:2,60670075662d19e13a79d7e9,,,condition_2,4,0,2023.1.3,2023-10-01_11h38.15.457,,1,MacIntel,,0.7669999999999959,,4,,1,,,5,001
﻿study_1_pilot,5,condition_2,,2,agent_2,5.1,1.51,330292,2023-10-01_11h38.19.774,,65194c1079f190971947dcaf,agent_1,study_1,5.1,29.41176470588235,,1:2+2:2,60670075662d19e13a79d7e9,,,condition_2,5,0,2023.1.3,2023-10-01_11h38.15.457,,2,MacIntel,,0.5239999999999725,,5,,1,,,6,001
﻿study_1_pilot,6,condition_2,,2,agent_2,5.15,2.75,330292,2023-10-01_11h38.19.774,,65194c1079f190971947dcaf,agent_1,study_1,5.15,29.41176470588235,,1:2+2:2,60670075662d19e13a79d7e9,,,condition_2,6,0,2023.1.3,2023-10-01_11h38.15.457,,2,MacIntel,,0.3410000000000082,,6,,1,,,7,001
﻿study_1_pilot,7,condition_2,,2,agent_2,2.54,2.88,330292,2023-10-01_11h38.19.774,,65194c1079f190971947dcaf,agent_1,study_1,2.54,29.41176470588235,,1:2+2:2,60670075662d19e13a79d7e9,,,condition_2,7,0,2023.1.3,2023-10-01_11h38.15.457,,2,MacIntel,,0.5880000000000223,,7,,1,,,8,001
﻿study_1_pilot,8,condition_2,,1,agent_2,4.66,2.35,330292,2023-10-01_11h38.19.774,,65194c1079f190971947dcaf,agent_1,study_1,2.35,29.41176470588235,,1:2+2:2,60670075662d19e13a79d7e9,,,condition_2,8,0,2023.1.3,2023-10-01_11h38.15.457,,1,MacIntel,,0.4089999999999918,,8,,1,,,9,001
﻿study_1_pilot,9,condition_2,,2,agent_2,3.69,3.31,330292,2023-10-01_11h38.19.774,,65194c1079f190971947dcaf,agent_1,study_1,3.69,29.41176470588235,,1:2+2:2,60670075662d19e13a79d7e9,,,condition_2,9,0,2023.1.3,2023-10-01_11h38.15.457,,2,MacIntel,,0.32099999999999795,,9,,1,,,10,001
﻿study_1_pilot,10,condition_2,,2,agent_2,3.09,3.12,330292,2023-10-01_11h38.19.774,,65194c1079f190971947dcaf,agent_1,study_1,3.09,29.41176470588235,,1:2+2:2,60670075662d19e13a79d7e9,,,condition_2,10,0,2023.1.3,2023-10-01_11h38.15.457,,2,MacIntel,,0.23900000000000432,,10,,1,,,11,001
﻿study_1_pilot,11,condition_2,,1,agent_2,5.58,2.16,330292,2023-10-01_11h38.19.774,,65194c1079f190971947dcaf,agent_1,study_1,2.16,29.41176470588235,,1:2+2:2,60670075662d19e13a79d7e9,,,condition_2,11,0,2023.1.3,2023-10-01_11h38.15.457,,1,MacIntel,,0.3100000000000023,,11,,1,,,12,001
﻿study_1_pilot,12,condition_2,,2,agent_2,3.28,3.6,330292,2023-10-01_11h38.19.774,,65194c1079f190971947dcaf,agent_1,study_1,3.28,29.41176470588235,,1:2+2:2,60670075662d19e13a79d7e9,,,condition_2,12,0,2023.1.3,2023-10-01_11h38.15.457,,2,MacIntel,,0.08199999999999363,,12,,1,,,13,001
﻿study_1_pilot,13,condition_2,,2,agent_2,4.6,2.75,330292,2023-10-01_11h38.19.774,,65194c1079f190971947dcaf,agent_1,study_1,4.6,29.41176470588235,,1:2+2:2,60670075662d19e13a79d7e9,,,condition_2,13,0,2023.1.3,2023-10-01_11h38.15.457,,2,MacIntel,,0.3760000000000048,,13,,1,,,14,001
﻿study_1_pilot,14,condition_2,,2,agent_2,3.42,2.82,330292,2023-10-01_11h38.19.774,,65194c1079f190971947dcaf,agent_1,study_1,3.42,29.41176470588235,,1:2+2:2,60670075662d19e13a79d7e9,,,condition_2,14,0,2023.1.3,2023-10-01_11h38.15.457,,2,MacIntel,,0.1740000000000066,,14,,1,,,15,001
﻿study_1_pilot,15,condition_2,,2,agent_2,6.84,3.02,330292,2023-10-01_11h38.19.774,,65194c1079f190971947dcaf,agent_1,study_1,6.84,29.41176470588235,,1:2+2:2,60670075662d19e13a79d7e9,,,condition_2,15,0,2023.1.3,2023-10-01_11h38.15.457,,2,MacIntel,,0.31800000000001205,,15,,1,,,16,001
﻿study_1_pilot,16,condition_2,,2,agent_2,5.98,2.52,330292,2023-10-01_11h38.19.774,,65194c1079f190971947dcaf,agent_1,study_1,5.98,29.41176470588235,,1:2+2:2,60670075662d19e13a79d7e9,,,condition_2,16,0,2023.1.3,2023-10-01_11h38.15.457,,2,MacIntel,,0.2669999999999959,,16,,1,,,17,001
﻿study_1_pilot,17,condition_2,,2,agent_2,4.67,2.26,330292,2023-10-01_11h38.19.774,,65194c1079f190971947dcaf,agent_1,study_1,4.67,29.41176470588235,,1:2+2:2,60670075662d19e13a79d7e9,,,condition_2,17,0,2023.1.3,2023-10-01_11h38.15.457,,2,MacIntel,,0.28000000000000114,,17,,1,,,18,001
﻿study_1_pilot,18,condition_2,,2,agent_2,6.19,4.3,330292,2023-10-01_11h38.19.774,,65194c1079f190971947dcaf,agent_1,study_1,6.19,29.41176470588235,,1:2+2:2,60670075662d19e13a79d7e9,,,condition_2,18,0,2023.1.3,2023-10-01_11h38.15.457,,2,MacIntel,,0.22700000000000387,,18,,1,,,19,001
﻿study_1_pilot,19,condition_2,,2,agent_2,4.67,3.56,330292,2023-10-01_11h38.19.774,,65194c1079f190971947dcaf,agent_1,study_1,4.67,29.41176470588235,,1:2+2:2,60670075662d19e13a79d7e9,,,condition_2,19,0,2023.1.3,2023-10-01_11h38.15.457,,2,MacIntel,,0.22499999999999432,,19,,1,,,20,001
﻿study_1_pilot,20,condition_2,,2,agent_2,5.17,1.19,330292,2023-10-01_11h38.19.774,,65194c1079f190971947dcaf,agent_1,study_1,5.17,29.41176470588235,,1:2+2:2,60670075662d19e13a79d7e9,,,condition_2,20,0,2023.1.3,2023-10-01_11h38.15.457,,2,MacIntel,,0.033999999999991815,,20,,1,,,21,001
﻿study_1_pilot,21,condition_2,,2,agent_2,4.57,3.44,330292,2023-10-01_11h38.19.774,,65194c1079f190971947dcaf,agent_1,study_1,4.57,29.41176470588235,,1:2+2:2,60670075662d19e13a79d7e9,,,condition_2,21,0,2023.1.3,2023-10-01_11h38.15.457,,2,MacIntel,,0.30000000000001137,,21,,1,,,22,001
﻿study_1_pilot,22,condition_2,,2,agent_2,6.97,1.56,330292,2023-10-01_11h38.19.774,,65194c1079f190971947dcaf,agent_1,study_1,6.97,29.41176470588235,,1:2+2:2,60670075662d19e13a79d7e9,,,condition_2,22,0,2023.1.3,2023-10-01_11h38.15.457,,2,MacIntel,,0.28800000000003934,,22,,1,,,23,001
﻿study_1_pilot,23,condition_2,,2,agent_2,5.56,3.95,330292,2023-10-01_11h38.19.774,,65194c1079f190971947dcaf,agent_1,study_1,5.56,29.41176470588235,,1:2+2:2,60670075662d19e13a79d7e9,,,condition_2,23,0,2023.1.3,2023-10-01_11h38.15.457,,2,MacIntel,,0.33500000000000796,,23,,1,,,24,001
﻿study_1_pilot,24,condition_2,,2,agent_2,4.36,2.28,330292,2023-10-01_11h38.19.774,,65194c1079f190971947dcaf,agent_1,study_1,4.36,29.41176470588235,,1:2+2:2,60670075662d19e13a79d7e9,,,condition_2,24,0,2023.1.3,2023-10-01_11h38.15.457,,2,MacIntel,,0.3429999999999893,,24,,1,,,25,001
﻿study_1_pilot,25,condition_2,,1,agent_2,4.95,3.05,330292,2023-10-01_11h38.19.774,,65194c1079f190971947dcaf,agent_1,study_1,3.05,29.41176470588235,,1:2+2:2,60670075662d19e13a79d7e9,,,condition_2,25,0,2023.1.3,2023-10-01_11h38.15.457,,1,MacIntel,,0.2680000000000007,,25,,1,,,26,001
﻿study_1_pilot,26,condition_2,,2,agent_2,6.13,1.44,330292,2023-10-01_11h38.19.774,,65194c1079f190971947dcaf,agent_1,study_1,6.13,29.41176470588235,,1:2+2:2,60670075662d19e13a79d7e9,,,condition_2,26,0,2023.1.3,2023-10-01_11h38.15.457,,2,MacIntel,,0.11000000000001364,,26,,1,,,27,001
﻿study_1_pilot,27,condition_2,,2,agent_2,5.29,0.7,330292,2023-10-01_11h38.19.774,,65194c1079f190971947dcaf,agent_1,study_1,5.29,29.41176470588235,,1:2+2:2,60670075662d19e13a79d7e9,,,condition_2,27,0,2023.1.3,2023-10-01_11h38.15.457,,2,MacIntel,,0.2330000000000041,,27,,1,,,28,001
﻿study_1_pilot,28,condition_2,,2,agent_2,5.46,4.16,330292,2023-10-01_11h38.19.774,,65194c1079f190971947dcaf,agent_1,study_1,5.46,29.41176470588235,,1:2+2:2,60670075662d19e13a79d7e9,,,condition_2,28,0,2023.1.3,2023-10-01_11h38.15.457,,2,MacIntel,,0.2699999999999818,,28,,1,,,29,001
﻿study_1_pilot,29,condition_2,,2,agent_2,6.18,2.3,330292,2023-10-01_11h38.19.774,,65194c1079f190971947dcaf,agent_1,study_1,6.18,29.41176470588235,,1:2+2:2,60670075662d19e13a79d7e9,,,condition_2,29,0,2023.1.3,2023-10-01_11h38.15.457,,2,MacIntel,,0.42500000000001137,,29,,1,,,30,001
﻿study_1_pilot,30,condition_2,,2,agent_2,3.59,1.43,330292,2023-10-01_11h38.19.774,,65194c1079f190971947dcaf,agent_1,study_1,3.59,29.41176470588235,,1:2+2:2,60670075662d19e13a79d7e9,,,condition_2,30,0,2023.1.3,2023-10-01_11h38.15.457,,2,MacIntel,,0.1839999999999975,,30,,1,,,31,001
﻿study_1_pilot,31,condition_2,,2,agent_2,4.38,3.52,330292,2023-10-01_11h38.19.774,,65194c1079f190971947dcaf,agent_1,study_1,4.38,29.41176470588235,,1:2+2:2,60670075662d19e13a79d7e9,,,condition_2,31,0,2023.1.3,2023-10-01_11h38.15.457,,2,MacIntel,,0.257000000000005,,31,,1,,,32,001
﻿study_1_pilot,32,condition_2,,1,agent_2,4.34,1.94,330292,2023-10-01_11h38.19.774,,65194c1079f190971947dcaf,agent_1,study_1,1.94,29.41176470588235,,1:2+2:2,60670075662d19e13a79d7e9,,,condition_2,32,0,2023.1.3,2023-10-01_11h38.15.457,,1,MacIntel,,0.019000000000005457,,32,,1,,,33,001
﻿study_1_pilot,33,condition_2,,2,agent_2,5.71,3.05,330292,2023-10-01_11h38.19.774,,65194c1079f190971947dcaf,agent_1,study_1,5.71,29.41176470588235,,1:2+2:2,60670075662d19e13a79d7e9,,,condition_2,33,0,2023.1.3,2023-10-01_11h38.15.457,,2,MacIntel,,0.16500000000002046,,33,,1,,,34,001
﻿study_1_pilot,34,condition_2,,2,agent_2,3.37,3.85,330292,2023-10-01_11h38.19.774,,65194c1079f190971947dcaf,agent_1,study_1,3.37,29.41176470588235,,1:2+2:2,60670075662d19e13a79d7e9,,,condition_2,34,0,2023.1.3,2023-10-01_11h38.15.457,,2,MacIntel,,0.2179999999999893,,34,,1,,,35,001
﻿study_1_pilot,35,condition_2,,2,agent_2,4.55,3.43,330292,2023-10-01_11h38.19.774,,65194c1079f190971947dcaf,agent_1,study_1,4.55,29.41176470588235,,1:2+2:2,60670075662d19e13a79d7e9,,,condition_2,35,0,2023.1.3,2023-10-01_11h38.15.457,,2,MacIntel,,0.11100000000001842,,35,,1,,,36,001
﻿study_1_pilot,36,condition_2,,2,agent_2,6.12,3.52,330292,2023-10-01_11h38.19.774,,65194c1079f190971947dcaf,agent_1,study_1,6.12,29.41176470588235,,1:2+2:2,60670075662d19e13a79d7e9,,,condition_2,36,0,2023.1.3,2023-10-01_11h38.15.457,,2,MacIntel,,0.18700000000001182,,36,,1,,,37,001
﻿study_1_pilot,37,condition_2,,2,agent_2,5.19,2.75,330292,2023-10-01_11h38.19.774,,65194c1079f190971947dcaf,agent_1,study_1,5.19,29.41176470588235,,1:2+2:2,60670075662d19e13a79d7e9,,,condition_2,37,0,2023.1.3,2023-10-01_11h38.15.457,,2,MacIntel,,0.3079999999999927,,37,,1,,,38,001
﻿study_1_pilot,38,condition_2,,2,agent_2,4.64,2.5,330292,2023-10-01_11h38.19.774,,65194c1079f190971947dcaf,agent_1,study_1,4.64,29.41176470588235,,1:2+2:2,60670075662d19e13a79d7e9,,,condition_2,38,0,2023.1.3,2023-10-01_11h38.15.457,,2,MacIntel,,0.22299999999998477,,38,,1,,,39,001
﻿study_1_pilot,39,condition_2,,2,agent_2,5.25,4.26,330292,2023-10-01_11h38.19.774,,65194c1079f190971947dcaf,agent_1,study_1,5.25,29.41176470588235,,1:2+2:2,60670075662d19e13a79d7e9,,,condition_2,39,0,2023.1.3,2023-10-01_11h38.15.457,,2,MacIntel,,0.2950000000000159,,39,,1,,,40,001
﻿study_1_pilot,40,condition_2,,2,agent_2,5.36,3.56,330292,2023-10-01_11h38.19.774,,65194c1079f190971947dcaf,agent_1,study_1,5.36,29.41176470588235,,1:2+2:2,60670075662d19e13a79d7e9,,,condition_2,40,0,2023.1.3,2023-10-01_11h38.15.457,,2,MacIntel,,0.2530000000000143,,40,,1,,,41,001
﻿study_1_pilot,41,condition_2,,2,agent_2,5.02,2.66,330292,2023-10-01_11h38.19.774,,65194c1079f190971947dcaf,agent_1,study_1,5.02,29.41176470588235,,1:2+2:2,60670075662d19e13a79d7e9,,,condition_2,41,0,2023.1.3,2023-10-01_11h38.15.457,,2,MacIntel,,0.31800000000001205,,41,,1,,,42,001
﻿study_1_pilot,42,condition_2,,2,agent_2,4.76,3.72,330292,2023-10-01_11h38.19.774,,65194c1079f190971947dcaf,agent_1,study_1,4.76,29.41176470588235,,1:2+2:2,60670075662d19e13a79d7e9,,,condition_2,42,0,2023.1.3,2023-10-01_11h38.15.457,,2,MacIntel,,0.14400000000000546,,42,,1,,,43,001
﻿study_1_pilot,43,condition_2,,2,agent_2,4.61,3.86,330292,2023-10-01_11h38.19.774,,65194c1079f190971947dcaf,agent_1,study_1,4.61,29.41176470588235,,1:2+2:2,60670075662d19e13a79d7e9,,,condition_2,43,0,2023.1.3,2023-10-01_11h38.15.457,,2,MacIntel,,0.4939999999999998,,43,,1,,,44,001
﻿study_1_pilot,44,condition_1,,2,agent_2,2.65,3.16,330292,2023-10-01_11h38.19.774,,65194c1079f190971947dcaf,agent_1,study_1,2.65,29.41176470588235,,1:1+2:1,60670075662d19e13a79d7e9,,,condition_1,44,0,2023.1.3,2023-10-01_11h38.15.457,,2,MacIntel,,0.27299999999999613,,44,,1,,,45,001
﻿study_1_pilot,45,condition_1,,1,agent_2,3.38,2.5,330292,2023-10-01_11h38.19.774,,65194c1079f190971947dcaf,agent_1,study_1,2.5,29.41176470588235,,1:1+2:1,60670075662d19e13a79d7e9,,,condition_1,45,0,2023.1.3,2023-10-01_11h38.15.457,,1,MacIntel,,0.24099999999998545,,45,,1,,,46,001
﻿study_1_pilot,46,condition_1,,2,agent_2,3.26,2.03,330292,2023-10-01_11h38.19.774,,65194c1079f190971947dcaf,agent_1,study_1,3.26,29.41176470588235,,1:1+2:1,60670075662d19e13a79d7e9,,,condition_1,46,0,2023.1.3,2023-10-01_11h38.15.457,,2,MacIntel,,0.2330000000000041,,46,,1,,,47,001
﻿study_1_pilot,47,condition_1,,1,agent_2,3.96,2.89,330292,2023-10-01_11h38.19.774,,65194c1079f190971947dcaf,agent_1,study_1,2.89,29.41176470588235,,1:1+2:1,60670075662d19e13a79d7e9,,,condition_1,47,0,2023.1.3,2023-10-01_11h38.15.457,,1,MacIntel,,0.23900000000000432,,47,,1,,,48,001
﻿study_1_pilot,48,condition_1,,2,agent_2,2.51,4.09,330292,2023-10-01_11h38.19.774,,65194c1079f190971947dcaf,agent_1,study_1,2.51,29.41176470588235,,1:1+2:1,60670075662d19e13a79d7e9,,,condition_1,48,0,2023.1.3,2023-10-01_11h38.15.457,,2,MacIntel,,0.19700000000000273,,48,,1,,,49,001
﻿study_1_pilot,49,condition_1,,1,agent_2,3.08,1.79,330292,2023-10-01_11h38.19.774,,65194c1079f190971947dcaf,agent_1,study_1,1.79,29.41176470588235,,1:1+2:1,60670075662d19e13a79d7e9,,,condition_1,49,0,2023.1.3,2023-10-01_11h38.15.457,,1,MacIntel,,0.1560000000000059,,49,,1,,,50,001
﻿study_1_pilot,50,condition_1,,2,agent_2,2.84,1.23,330292,2023-10-01_11h38.19.774,,65194c1079f190971947dcaf,agent_1,study_1,2.84,29.41176470588235,,1:1+2:1,60670075662d19e13a79d7e9,,,condition_1,50,0,2023.1.3,2023-10-01_11h38.15.457,,2,MacIntel,,0.19299999999998363,,50,,1,,,51,001
﻿study_1_pilot,51,condition_1,,2,agent_2,4.27,2.51,330292,2023-10-01_11h38.19.774,,65194c1079f190971947dcaf,agent_1,study_1,4.27,29.41176470588235,,1:1+2:1,60670075662d19e13a79d7e9,,,condition_1,51,0,2023.1.3,2023-10-01_11h38.15.457,,2,MacIntel,,0.05500000000000682,,51,,1,,,52,001
﻿study_1_pilot,,,,,,,,330292,2023-10-01_11h38.19.774,,65194c1079f190971947dcaf,,study_1,,29.41176470588235,,,60670075662d19e13a79d7e9,,,,,,2023.1.3,2023-10-01_11h38.15.457,,,MacIntel,,,,,,,,,,001
﻿study_1_pilot,,,,,,,,909153,2023-10-01_12h38.34.257,,65194c19b39c0df9f861ea3b,,study_1,,142.85714285714286,,,5f4b5dfa55620d00087a72bb,,side_flip,,,,2023.1.3,2023-10-01_12h38.29.636,,,Win32,,,,,,,,,,001
﻿study_1_pilot,,,,,,,,909153,2023-10-01_12h38.34.257,,65194c19b39c0df9f861ea3b,,study_1,,142.85714285714286,,,5f4b5dfa55620d00087a72bb,,,,,,2023.1.3,2023-10-01_12h38.29.636,,,Win32,,,,,,,,,,001
﻿study_1_pilot,,,,,,,,909153,2023-10-01_12h38.34.257,,65194c19b39c0df9f861ea3b,,study_1,,142.85714285714286,,,5f4b5dfa55620d00087a72bb,,,,,,2023.1.3,2023-10-01_12h38.29.636,,,Win32,,,,,,,,,,001
﻿study_1_pilot,,,,,,,,909153,2023-10-01_12h38.34.257,,65194c19b39c0df9f861ea3b,,study_1,,142.85714285714286,,,5f4b5dfa55620d00087a72bb,,,,,,2023.1.3,2023-10-01_12h38.29.636,,,Win32,,,,,,,,,,001
﻿study_1_pilot,,,,,,,,909153,2023-10-01_12h38.34.257,,65194c19b39c0df9f861ea3b,,study_1,,142.85714285714286,,,5f4b5dfa55620d00087a72bb,,,,,,2023.1.3,2023-10-01_12h38.29.636,,,Win32,,,,,,,,,,001
﻿study_1_pilot,,,,,,,,909153,2023-10-01_12h38.34.257,,65194c19b39c0df9f861ea3b,,study_1,,142.85714285714286,,,5f4b5dfa55620d00087a72bb,,,,,,2023.1.3,2023-10-01_12h38.29.636,,,Win32,,,,,,,,,,001
﻿study_1_pilot,,,,,,,,909153,2023-10-01_12h38.34.257,,65194c19b39c0df9f861ea3b,,study_1,,142.85714285714286,,,5f4b5dfa55620d00087a72bb,,,,,,2023.1.3,2023-10-01_12h38.29.636,,,Win32,,,,,,,,,,001
﻿study_1_pilot,,,,,,,,909153,2023-10-01_12h38.34.257,,65194c19b39c0df9f861ea3b,,study_1,,142.85714285714286,,,5f4b5dfa55620d00087a72bb,,,,,,2023.1.3,2023-10-01_12h38.29.636,,,Win32,,,,,,,,,,001
﻿study_1_pilot,,,,,,,,909153,2023-10-01_12h38.34.257,,65194c19b39c0df9f861ea3b,,study_1,,142.85714285714286,,,5f4b5dfa55620d00087a72bb,,,,,,2023.1.3,2023-10-01_12h38.29.636,,,Win32,,,,,,,,,,001
﻿study_1_pilot,,,,,,,,909153,2023-10-01_12h38.34.257,,65194c19b39c0df9f861ea3b,,study_1,,142.85714285714286,,,5f4b5dfa55620d00087a72bb,,,,,,2023.1.3,2023-10-01_12h38.29.636,,,Win32,,,,,,,,,,001
﻿study_1_pilot,,,,,,,,909153,2023-10-01_12h38.34.257,,65194c19b39c0df9f861ea3b,,study_1,,142.85714285714286,,,5f4b5dfa55620d00087a72bb,,,,,,2023.1.3,2023-10-01_12h38.29.636,,,Win32,,,,,,,,,,001
﻿study_1_pilot,,,,,,,,909153,2023-10-01_12h38.34.257,,65194c19b39c0df9f861ea3b,,study_1,,142.85714285714286,,,5f4b5dfa55620d00087a72bb,,,,,,2023.1.3,2023-10-01_12h38.29.636,,,Win32,,,,,,,,,,001
﻿study_1_pilot,,,,,,,,909153,2023-10-01_12h38.34.257,,65194c19b39c0df9f861ea3b,,study_1,,142.85714285714286,,,5f4b5dfa55620d00087a72bb,,,,,,2023.1.3,2023-10-01_12h38.29.636,,,Win32,,,,,,,,,,001
﻿study_1_pilot,,,,,,,,909153,2023-10-01_12h38.34.257,,65194c19b39c0df9f861ea3b,,study_1,,142.85714285714286,,,5f4b5dfa55620d00087a72bb,,,,,,2023.1.3,2023-10-01_12h38.29.636,,,Win32,,,,,,,,,,001
﻿study_1_pilot,,,,,,,,909153,2023-10-01_12h38.34.257,,65194c19b39c0df9f861ea3b,,study_1,,142.85714285714286,,,5f4b5dfa55620d00087a72bb,,,,,,2023.1.3,2023-10-01_12h38.29.636,,,Win32,,,,,,,,,,001
﻿study_1_pilot,,,,,,,,909153,2023-10-01_12h38.34.257,,65194c19b39c0df9f861ea3b,,study_1,,142.85714285714286,,,5f4b5dfa55620d00087a72bb,,,,,,2023.1.3,2023-10-01_12h38.29.636,,,Win32,,,,,,,,,,001
﻿study_1_pilot,,,,,,,,909153,2023-10-01_12h38.34.257,,65194c19b39c0df9f861ea3b,,study_1,,142.85714285714286,,,5f4b5dfa55620d00087a72bb,,,,,,2023.1.3,2023-10-01_12h38.29.636,,,Win32,,,,,,,,,,001
﻿study_1_pilot,,,,,,,,909153,2023-10-01_12h38.34.257,,65194c19b39c0df9f861ea3b,,study_1,,142.85714285714286,,,5f4b5dfa55620d00087a72bb,,,,,,2023.1.3,2023-10-01_12h38.29.636,,,Win32,,,,,,,,,,001
﻿study_1_pilot,,,,,,,,909153,2023-10-01_12h38.34.257,,65194c19b39c0df9f861ea3b,,study_1,,142.85714285714286,,,5f4b5dfa55620d00087a72bb,,,,,,2023.1.3,2023-10-01_12h38.29.636,,,Win32,,,,,,,,,,001
﻿study_1_pilot,,,,,,,,909153,2023-10-01_12h38.34.257,,65194c19b39c0df9f861ea3b,,study_1,,142.85714285714286,,,5f4b5dfa55620d00087a72bb,,,,,,2023.1.3,2023-10-01_12h38.29.636,,,Win32,,,,,,,,,,001
﻿study_1_pilot,,,,,,,,909153,2023-10-01_12h38.34.257,,65194c19b39c0df9f861ea3b,,study_1,,142.85714285714286,,,5f4b5dfa55620d00087a72bb,,,,,,2023.1.3,2023-10-01_12h38.29.636,,,Win32,,,,,,,,,,001
﻿study_1_pilot,,,,,,,,909153,2023-10-01_12h38.34.257,,65194c19b39c0df9f861ea3b,,study_1,,142.85714285714286,,,5f4b5dfa55620d00087a72bb,,,,,,2023.1.3,2023-10-01_12h38.29.636,,,Win32,,,,,,,,,,001
﻿study_1_pilot,,,3.859999999999985,,,,,909153,2023-10-01_12h38.34.257,,65194c19b39c0df9f861ea3b,,study_1,,142.85714285714286,,,5f4b5dfa55620d00087a72bb,1,,,,,2023.1.3,2023-10-01_12h38.29.636,,,Win32,,,,,,,,,,001
﻿study_1_pilot,,,,,,,,909153,2023-10-01_12h38.34.257,,65194c19b39c0df9f861ea3b,,study_1,,142.85714285714286,15.550000000000011,,5f4b5dfa55620d00087a72bb,,,,,,2023.1.3,2023-10-01_12h38.29.636,,,Win32,,,,,,,,space,,001
﻿study_1_pilot,,,,,,,,909153,2023-10-01_12h38.34.257,space,65194c19b39c0df9f861ea3b,,study_1,,142.85714285714286,,,5f4b5dfa55620d00087a72bb,,,,,,2023.1.3,2023-10-01_12h38.29.636,,,Win32,,,,,,,2.657999999999987,,,001
﻿study_1_pilot,,,,,,,,909153,2023-10-01_12h38.34.257,,65194c19b39c0df9f861ea3b,,study_1,,142.85714285714286,,,5f4b5dfa55620d00087a72bb,,,,,,2023.1.3,2023-10-01_12h38.29.636,2,,Win32,,,,,6.655000000000001,,,,,001
﻿study_1_pilot,,,,,,,,909153,2023-10-01_12h38.34.257,,65194c19b39c0df9f861ea3b,,study_1,,142.85714285714286,,,5f4b5dfa55620d00087a72bb,,,,,,2023.1.3,2023-10-01_12h38.29.636,,,Win32,,,2,,,,,,,001
﻿study_1_pilot,,,,,,,,909153,2023-10-01_12h38.34.257,,65194c19b39c0df9f861ea3b,,study_1,,142.85714285714286,,,5f4b5dfa55620d00087a72bb,,,,,,2023.1.3,2023-10-01_12h38.29.636,,,Win32,,,,,,,,,,001
﻿study_1_pilot,0,condition_2,,2,agent_2,4.28,3.32,909153,2023-10-01_12h38.34.257,,65194c19b39c0df9f861ea3b,agent_1,study_1,4.28,142.85714285714286,,1:2+2:2,5f4b5dfa55620d00087a72bb,,,condition_2,0,0,2023.1.3,2023-10-01_12h38.29.636,,2,Win32,,1.438999999999993,,0,,1,,,1,001
﻿study_1_pilot,1,condition_2,,2,agent_2,6.54,4.46,909153,2023-10-01_12h38.34.257,,65194c19b39c0df9f861ea3b,agent_1,study_1,6.54,142.85714285714286,,1:2+2:2,5f4b5dfa55620d00087a72bb,,,condition_2,1,0,2023.1.3,2023-10-01_12h38.29.636,,2,Win32,,2.9969999999999857,,1,,1,,,2,001
﻿study_1_pilot,2,condition_2,,1,agent_2,5.85,4.54,909153,2023-10-01_12h38.34.257,,65194c19b39c0df9f861ea3b,agent_1,study_1,4.54,142.85714285714286,,1:2+2:2,5f4b5dfa55620d00087a72bb,,,condition_2,2,0,2023.1.3,2023-10-01_12h38.29.636,,1,Win32,,0.41499999999999204,,2,,1,,,3,001
﻿study_1_pilot,3,condition_2,,1,agent_2,5.8,2.66,909153,2023-10-01_12h38.34.257,,65194c19b39c0df9f861ea3b,agent_1,study_1,2.66,142.85714285714286,,1:2+2:2,5f4b5dfa55620d00087a72bb,,,condition_2,3,0,2023.1.3,2023-10-01_12h38.29.636,,1,Win32,,0.5900000000000034,,3,,1,,,4,001
﻿study_1_pilot,4,condition_2,,2,agent_2,4.66,1.92,909153,2023-10-01_12h38.34.257,,65194c19b39c0df9f861ea3b,agent_1,study_1,4.66,142.85714285714286,,1:2+2:2,5f4b5dfa55620d00087a72bb,,,condition_2,4,0,2023.1.3,2023-10-01_12h38.29.636,,2,Win32,,0.6410000000000196,,4,,1,,,5,001
﻿study_1_pilot,5,condition_2,,1,agent_2,5.1,1.51,909153,2023-10-01_12h38.34.257,,65194c19b39c0df9f861ea3b,agent_1,study_1,1.51,142.85714285714286,,1:2+2:2,5f4b5dfa55620d00087a72bb,,,condition_2,5,0,2023.1.3,2023-10-01_12h38.29.636,,1,Win32,,0.34499999999999886,,5,,1,,,6,001
﻿study_1_pilot,6,condition_2,,1,agent_2,5.15,2.75,909153,2023-10-01_12h38.34.257,,65194c19b39c0df9f861ea3b,agent_1,study_1,2.75,142.85714285714286,,1:2+2:2,5f4b5dfa55620d00087a72bb,,,condition_2,6,0,2023.1.3,2023-10-01_12h38.29.636,,1,Win32,,1.054000000000002,,6,,1,,,7,001
﻿study_1_pilot,7,condition_2,,2,agent_2,2.54,2.88,909153,2023-10-01_12h38.34.257,,65194c19b39c0df9f861ea3b,agent_1,study_1,2.54,142.85714285714286,,1:2+2:2,5f4b5dfa55620d00087a72bb,,,condition_2,7,0,2023.1.3,2023-10-01_12h38.29.636,,2,Win32,,0.3620000000000232,,7,,1,,,8,001
﻿study_1_pilot,8,condition_2,,2,agent_2,4.66,2.35,909153,2023-10-01_12h38.34.257,,65194c19b39c0df9f861ea3b,agent_1,study_1,4.66,142.85714285714286,,1:2+2:2,5f4b5dfa55620d00087a72bb,,,condition_2,8,0,2023.1.3,2023-10-01_12h38.29.636,,2,Win32,,0.707000000000022,,8,,1,,,9,001
﻿study_1_pilot,9,condition_2,,1,agent_2,3.69,3.31,909153,2023-10-01_12h38.34.257,,65194c19b39c0df9f861ea3b,agent_1,study_1,3.31,142.85714285714286,,1:2+2:2,5f4b5dfa55620d00087a72bb,,,condition_2,9,0,2023.1.3,2023-10-01_12h38.29.636,,1,Win32,,0.936000000000007,,9,,1,,,10,001
﻿study_1_pilot,10,condition_2,,2,agent_2,3.09,3.12,909153,2023-10-01_12h38.34.257,,65194c19b39c0df9f861ea3b,agent_1,study_1,3.09,142.85714285714286,,1:2+2:2,5f4b5dfa55620d00087a72bb,,,condition_2,10,0,2023.1.3,2023-10-01_12h38.29.636,,2,Win32,,0.742999999999995,,10,,1,,,11,001
﻿study_1_pilot,11,condition_2,,2,agent_2,5.58,2.16,909153,2023-10-01_12h38.34.257,,65194c19b39c0df9f861ea3b,agent_1,study_1,5.58,142.85714285714286,,1:2+2:2,5f4b5dfa55620d00087a72bb,,,condition_2,11,0,2023.1.3,2023-10-01_12h38.29.636,,2,Win32,,0.46399999999999864,,11,,1,,,12,001
﻿study_1_pilot,12,condition_2,,1,agent_2,3.28,3.6,909153,2023-10-01_12h38.34.257,,65194c19b39c0df9f861ea3b,agent_1,study_1,3.6,142.85714285714286,,1:2+2:2,5f4b5dfa55620d00087a72bb,,,condition_2,12,0,2023.1.3,2023-10-01_12h38.29.636,,1,Win32,,0.26499999999998636,,12,,1,,,13,001
﻿study_1_pilot,13,condition_2,,2,agent_2,4.6,2.75,909153,2023-10-01_12h38.34.257,,65194c19b39c0df9f861ea3b,agent_1,study_1,4.6,142.85714285714286,,1:2+2:2,5f4b5dfa55620d00087a72bb,,,condition_2,13,0,2023.1.3,2023-10-01_12h38.29.636,,2,Win32,,0.32499999999998863,,13,,1,,,14,001
﻿study_1_pilot,14,condition_2,,2,agent_2,3.42,2.82,909153,2023-10-01_12h38.34.257,,65194c19b39c0df9f861ea3b,agent_1,study_1,3.42,142.85714285714286,,1:2+2:2,5f4b5dfa55620d00087a72bb,,,condition_2,14,0,2023.1.3,2023-10-01_12h38.29.636,,2,Win32,,0.26200000000000045,,14,,1,,,15,001
﻿study_1_pilot,15,condition_2,,1,agent_2,6.84,3.02,909153,2023-10-01_12h38.34.257,,65194c19b39c0df9f861ea3b,agent_1,study_1,3.02,142.85714285714286,,1:2+2:2,5f4b5dfa55620d00087a72bb,,,condition_2,15,0,2023.1.3,2023-10-01_12h38.29.636,,1,Win32,,0.7590000000000146,,15,,1,,,16,001
﻿study_1_pilot,16,condition_2,,1,agent_2,5.98,2.52,909153,2023-10-01_12h38.34.257,,65194c19b39c0df9f861ea3b,agent_1,study_1,2.52,142.85714285714286,,1:2+2:2,5f4b5dfa55620d00087a72bb,,,condition_2,16,0,2023.1.3,2023-10-01_12h38.29.636,,1,Win32,,0.31399999999999295,,16,,1,,,17,001
﻿study_1_pilot,17,condition_2,,2,agent_2,4.67,2.26,909153,2023-10-01_12h38.34.257,,65194c19b39c0df9f861ea3b,agent_1,study_1,4.67,142.85714285714286,,1:2+2:2,5f4b5dfa55620d00087a72bb,,,condition_2,17,0,2023.1.3,2023-10-01_12h38.29.636,,2,Win32,,0.21999999999999886,,17,,1,,,18,001
﻿study_1_pilot,18,condition_2,,1,agent_2,6.19,4.3,909153,2023-10-01_12h38.34.257,,65194c19b39c0df9f861ea3b,agent_1,study_1,4.3,142.85714285714286,,1:2+2:2,5f4b5dfa55620d00087a72bb,,,condition_2,18,0,2023.1.3,2023-10-01_12h38.29.636,,1,Win32,,0.3369999999999891,,18,,1,,,19,001
﻿study_1_pilot,19,condition_2,,2,agent_2,4.67,3.56,909153,2023-10-01_12h38.34.257,,65194c19b39c0df9f861ea3b,agent_1,study_1,4.67,142.85714285714286,,1:2+2:2,5f4b5dfa55620d00087a72bb,,,condition_2,19,0,2023.1.3,2023-10-01_12h38.29.636,,2,Win32,,0.26900000000000546,,19,,1,,,20,001
﻿study_1_pilot,20,condition_2,,2,agent_2,5.17,1.19,909153,2023-10-01_12h38.34.257,,65194c19b39c0df9f861ea3b,agent_1,study_1,5.17,142.85714285714286,,1:2+2:2,5f4b5dfa55620d00087a72bb,,,condition_2,20,0,2023.1.3,2023-10-01_12h38.29.636,,2,Win32,,0.28999999999999204,,20,,1,,,21,001
﻿study_1_pilot,21,condition_2,,2,agent_2,4.57,3.44,909153,2023-10-01_12h38.34.257,,65194c19b39c0df9f861ea3b,agent_1,study_1,4.57,142.85714285714286,,1:2+2:2,5f4b5dfa55620d00087a72bb,,,condition_2,21,0,2023.1.3,2023-10-01_12h38.29.636,,2,Win32,,0.2510000000000048,,21,,1,,,22,001
﻿study_1_pilot,22,condition_2,,1,agent_2,6.97,1.56,909153,2023-10-01_12h38.34.257,,65194c19b39c0df9f861ea3b,agent_1,study_1,1.56,142.85714285714286,,1:2+2:2,5f4b5dfa55620d00087a72bb,,,condition_2,22,0,2023.1.3,2023-10-01_12h38.29.636,,1,Win32,,1.5769999999999982,,22,,1,,,23,001
﻿study_1_pilot,23,condition_2,,1,agent_2,5.56,3.95,909153,2023-10-01_12h38.34.257,,65194c19b39c0df9f861ea3b,agent_1,study_1,3.95,142.85714285714286,,1:2+2:2,5f4b5dfa55620d00087a72bb,,,condition_2,23,0,2023.1.3,2023-10-01_12h38.29.636,,1,Win32,,0.6589999999999918,,23,,1,,,24,001
﻿study_1_pilot,24,condition_2,,2,agent_2,4.36,2.28,909153,2023-10-01_12h38.34.257,,65194c19b39c0df9f861ea3b,agent_1,study_1,4.36,142.85714285714286,,1:2+2:2,5f4b5dfa55620d00087a72bb,,,condition_2,24,0,2023.1.3,2023-10-01_12h38.29.636,,2,Win32,,0.3610000000000184,,24,,1,,,25,001
﻿study_1_pilot,25,condition_2,,1,agent_2,4.95,3.05,909153,2023-10-01_12h38.34.257,,65194c19b39c0df9f861ea3b,agent_1,study_1,3.05,142.85714285714286,,1:2+2:2,5f4b5dfa55620d00087a72bb,,,condition_2,25,0,2023.1.3,2023-10-01_12h38.29.636,,1,Win32,,0.4630000000000223,,25,,1,,,26,001
﻿study_1_pilot,26,condition_2,,2,agent_2,6.13,1.44,909153,2023-10-01_12h38.34.257,,65194c19b39c0df9f861ea3b,agent_1,study_1,6.13,142.85714285714286,,1:2+2:2,5f4b5dfa55620d00087a72bb,,,condition_2,26,0,2023.1.3,2023-10-01_12h38.29.636,,2,Win32,,0.22700000000000387,,26,,1,,,27,001
﻿study_1_pilot,27,condition_2,,2,agent_2,5.29,0.7,909153,2023-10-01_12h38.34.257,,65194c19b39c0df9f861ea3b,agent_1,study_1,5.29,142.85714285714286,,1:2+2:2,5f4b5dfa55620d00087a72bb,,,condition_2,27,0,2023.1.3,2023-10-01_12h38.29.636,,2,Win32,,0.24600000000000932,,27,,1,,,28,001
﻿study_1_pilot,28,condition_2,,2,agent_2,5.46,4.16,909153,2023-10-01_12h38.34.257,,65194c19b39c0df9f861ea3b,agent_1,study_1,5.46,142.85714285714286,,1:2+2:2,5f4b5dfa55620d00087a72bb,,,condition_2,28,0,2023.1.3,2023-10-01_12h38.29.636,,2,Win32,,0.14699999999999136,,28,,1,,,29,001
﻿study_1_pilot,29,condition_2,,1,agent_2,6.18,2.3,909153,2023-10-01_12h38.34.257,,65194c19b39c0df9f861ea3b,agent_1,study_1,2.3,142.85714285714286,,1:2+2:2,5f4b5dfa55620d00087a72bb,,,condition_2,29,0,2023.1.3,2023-10-01_12h38.29.636,,1,Win32,,0.23600000000001842,,29,,1,,,30,001
﻿study_1_pilot,30,condition_2,,1,agent_2,3.59,1.43,909153,2023-10-01_12h38.34.257,,65194c19b39c0df9f861ea3b,agent_1,study_1,1.43,142.85714285714286,,1:2+2:2,5f4b5dfa55620d00087a72bb,,,condition_2,30,0,2023.1.3,2023-10-01_12h38.29.636,,1,Win32,,0.11899999999999977,,30,,1,,,31,001
﻿study_1_pilot,31,condition_2,,1,agent_2,4.38,3.52,909153,2023-10-01_12h38.34.257,,65194c19b39c0df9f861ea3b,agent_1,study_1,3.52,142.85714285714286,,1:2+2:2,5f4b5dfa55620d00087a72bb,,,condition_2,31,0,2023.1.3,2023-10-01_12h38.29.636,,1,Win32,,0.3650000000000091,,31,,1,,,32,001
﻿study_1_pilot,32,condition_2,,2,agent_2,4.34,1.94,909153,2023-10-01_12h38.34.257,,65194c19b39c0df9f861ea3b,agent_1,study_1,4.34,142.85714285714286,,1:2+2:2,5f4b5dfa55620d00087a72bb,,,condition_2,32,0,2023.1.3,2023-10-01_12h38.29.636,,2,Win32,,0.36199999999999477,,32,,1,,,33,001
﻿study_1_pilot,33,condition_2,,1,agent_2,5.71,3.05,909153,2023-10-01_12h38.34.257,,65194c19b39c0df9f861ea3b,agent_1,study_1,3.05,142.85714285714286,,1:2+2:2,5f4b5dfa55620d00087a72bb,,,condition_2,33,0,2023.1.3,2023-10-01_12h38.29.636,,1,Win32,,1.6079999999999757,,33,,1,,,34,001
﻿study_1_pilot,34,condition_2,,1,agent_2,3.37,3.85,909153,2023-10-01_12h38.34.257,,65194c19b39c0df9f861ea3b,agent_1,study_1,3.85,142.85714285714286,,1:2+2:2,5f4b5dfa55620d00087a72bb,,,condition_2,34,0,2023.1.3,2023-10-01_12h38.29.636,,1,Win32,,0.06800000000001205,,34,,1,,,35,001
﻿study_1_pilot,35,condition_2,,1,agent_2,4.55,3.43,909153,2023-10-01_12h38.34.257,,65194c19b39c0df9f861ea3b,agent_1,study_1,3.43,142.85714285714286,,1:2+2:2,5f4b5dfa55620d00087a72bb,,,condition_2,35,0,2023.1.3,2023-10-01_12h38.29.636,,1,Win32,,0.29300000000000637,,35,,1,,,36,001
﻿study_1_pilot,36,condition_2,,2,agent_2,6.12,3.52,909153,2023-10-01_12h38.34.257,,65194c19b39c0df9f861ea3b,agent_1,study_1,6.12,142.85714285714286,,1:2+2:2,5f4b5dfa55620d00087a72bb,,,condition_2,36,0,2023.1.3,2023-10-01_12h38.29.636,,2,Win32,,0.22199999999998,,36,,1,,,37,001
﻿study_1_pilot,37,condition_2,,1,agent_2,5.19,2.75,909153,2023-10-01_12h38.34.257,,65194c19b39c0df9f861ea3b,agent_1,study_1,2.75,142.85714285714286,,1:2+2:2,5f4b5dfa55620d00087a72bb,,,condition_2,37,0,2023.1.3,2023-10-01_12h38.29.636,,1,Win32,,0.22999999999998977,,37,,1,,,38,001
﻿study_1_pilot,38,condition_2,,1,agent_2,4.64,2.5,909153,2023-10-01_12h38.34.257,,65194c19b39c0df9f861ea3b,agent_1,study_1,2.5,142.85714285714286,,1:2+2:2,5f4b5dfa55620d00087a72bb,,,condition_2,38,0,2023.1.3,2023-10-01_12h38.29.636,,1,Win32,,0.2330000000000041,,38,,1,,,39,001
﻿study_1_pilot,39,condition_2,,2,agent_2,5.25,4.26,909153,2023-10-01_12h38.34.257,,65194c19b39c0df9f861ea3b,agent_1,study_1,5.25,142.85714285714286,,1:2+2:2,5f4b5dfa55620d00087a72bb,,,condition_2,39,0,2023.1.3,2023-10-01_12h38.29.636,,2,Win32,,0.025999999999982037,,39,,1,,,40,001
﻿study_1_pilot,40,condition_2,,1,agent_2,5.36,3.56,909153,2023-10-01_12h38.34.257,,65194c19b39c0df9f861ea3b,agent_1,study_1,3.56,142.85714285714286,,1:2+2:2,5f4b5dfa55620d00087a72bb,,,condition_2,40,0,2023.1.3,2023-10-01_12h38.29.636,,1,Win32,,0.21999999999999886,,40,,1,,,41,001
﻿study_1_pilot,41,condition_2,,2,agent_2,5.02,2.66,909153,2023-10-01_12h38.34.257,,65194c19b39c0df9f861ea3b,agent_1,study_1,5.02,142.85714285714286,,1:2+2:2,5f4b5dfa55620d00087a72bb,,,condition_2,41,0,2023.1.3,2023-10-01_12h38.29.636,,2,Win32,,0.23500000000001364,,41,,1,,,42,001
﻿study_1_pilot,42,condition_2,,2,agent_2,4.76,3.72,909153,2023-10-01_12h38.34.257,,65194c19b39c0df9f861ea3b,agent_1,study_1,4.76,142.85714285714286,,1:2+2:2,5f4b5dfa55620d00087a72bb,,,condition_2,42,0,2023.1.3,2023-10-01_12h38.29.636,,2,Win32,,0.2079999999999984,,42,,1,,,43,001
﻿study_1_pilot,43,condition_2,,2,agent_2,4.61,3.86,909153,2023-10-01_12h38.34.257,,65194c19b39c0df9f861ea3b,agent_1,study_1,4.61,142.85714285714286,,1:2+2:2,5f4b5dfa55620d00087a72bb,,,condition_2,43,0,2023.1.3,2023-10-01_12h38.29.636,,2,Win32,,0.24600000000000932,,43,,1,,,44,001
﻿study_1_pilot,44,condition_1,,1,agent_2,2.65,3.16,909153,2023-10-01_12h38.34.257,,65194c19b39c0df9f861ea3b,agent_1,study_1,3.16,142.85714285714286,,1:1+2:1,5f4b5dfa55620d00087a72bb,,,condition_1,44,0,2023.1.3,2023-10-01_12h38.29.636,,1,Win32,,0.8140000000000214,,44,,1,,,45,001
﻿study_1_pilot,45,condition_1,,1,agent_2,3.38,2.5,909153,2023-10-01_12h38.34.257,,65194c19b39c0df9f861ea3b,agent_1,study_1,2.5,142.85714285714286,,1:1+2:1,5f4b5dfa55620d00087a72bb,,,condition_1,45,0,2023.1.3,2023-10-01_12h38.29.636,,1,Win32,,1.8059999999999832,,45,,1,,,46,001
﻿study_1_pilot,46,condition_1,,2,agent_2,3.26,2.03,909153,2023-10-01_12h38.34.257,,65194c19b39c0df9f861ea3b,agent_1,study_1,3.26,142.85714285714286,,1:1+2:1,5f4b5dfa55620d00087a72bb,,,condition_1,46,0,2023.1.3,2023-10-01_12h38.29.636,,2,Win32,,0.47299999999998477,,46,,1,,,47,001
﻿study_1_pilot,47,condition_1,,2,agent_2,3.96,2.89,909153,2023-10-01_12h38.34.257,,65194c19b39c0df9f861ea3b,agent_1,study_1,3.96,142.85714285714286,,1:1+2:1,5f4b5dfa55620d00087a72bb,,,condition_1,47,0,2023.1.3,2023-10-01_12h38.29.636,,2,Win32,,0.2189999999999941,,47,,1,,,48,001
﻿study_1_pilot,48,condition_1,,2,agent_2,2.51,4.09,909153,2023-10-01_12h38.34.257,,65194c19b39c0df9f861ea3b,agent_1,study_1,2.51,142.85714285714286,,1:1+2:1,5f4b5dfa55620d00087a72bb,,,condition_1,48,0,2023.1.3,2023-10-01_12h38.29.636,,2,Win32,,0.47699999999997544,,48,,1,,,49,001
﻿study_1_pilot,49,condition_1,,1,agent_2,3.08,1.79,909153,2023-10-01_12h38.34.257,,65194c19b39c0df9f861ea3b,agent_1,study_1,1.79,142.85714285714286,,1:1+2:1,5f4b5dfa55620d00087a72bb,,,condition_1,49,0,2023.1.3,2023-10-01_12h38.29.636,,1,Win32,,0.25099999999997635,,49,,1,,,50,001
﻿study_1_pilot,50,condition_1,,1,agent_2,2.84,1.23,909153,2023-10-01_12h38.34.257,,65194c19b39c0df9f861ea3b,agent_1,study_1,1.23,142.85714285714286,,1:1+2:1,5f4b5dfa55620d00087a72bb,,,condition_1,50,0,2023.1.3,2023-10-01_12h38.29.636,,1,Win32,,0.21500000000003183,,50,,1,,,51,001
﻿study_1_pilot,51,condition_1,,2,agent_2,4.27,2.51,909153,2023-10-01_12h38.34.257,,65194c19b39c0df9f861ea3b,agent_1,study_1,4.27,142.85714285714286,,1:1+2:1,5f4b5dfa55620d00087a72bb,,,condition_1,51,0,2023.1.3,2023-10-01_12h38.29.636,,2,Win32,,0.02800000000002001,,51,,1,,,52,001
﻿study_1_pilot,,,,,,,,909153,2023-10-01_12h38.34.257,,65194c19b39c0df9f861ea3b,,study_1,,142.85714285714286,,,5f4b5dfa55620d00087a72bb,,,,,,2023.1.3,2023-10-01_12h38.29.636,,,Win32,,,,,,,,,,001
﻿study_1_pilot,,,,,,,,028839,2023-10-01_13h38.03.715,,65194c00a387dc51a96a0516,,study_1,,60.0781015319933,,,5eeb60b1ac0f3906747f58ee,,side_flip,,,,2023.1.3,2023-10-01_13h37.59.183,,,Win32,,,,,,,,,,001
﻿study_1_pilot,,,,,,,,028839,2023-10-01_13h38.03.715,,65194c00a387dc51a96a0516,,study_1,,60.0781015319933,,,5eeb60b1ac0f3906747f58ee,,,,,,2023.1.3,2023-10-01_13h37.59.183,,,Win32,,,,,,,,,,001
﻿study_1_pilot,,,,,,,,028839,2023-10-01_13h38.03.715,,65194c00a387dc51a96a0516,,study_1,,60.0781015319933,,,5eeb60b1ac0f3906747f58ee,,,,,,2023.1.3,2023-10-01_13h37.59.183,,,Win32,,,,,,,,,,001
﻿study_1_pilot,,,,,,,,028839,2023-10-01_13h38.03.715,,65194c00a387dc51a96a0516,,study_1,,60.0781015319933,,,5eeb60b1ac0f3906747f58ee,,,,,,2023.1.3,2023-10-01_13h37.59.183,,,Win32,,,,,,,,,,001
﻿study_1_pilot,,,,,,,,028839,2023-10-01_13h38.03.715,,65194c00a387dc51a96a0516,,study_1,,60.0781015319933,,,5eeb60b1ac0f3906747f58ee,,,,,,2023.1.3,2023-10-01_13h37.59.183,,,Win32,,,,,,,,,,001
﻿study_1_pilot,,,,,,,,028839,2023-10-01_13h38.03.715,,65194c00a387dc51a96a0516,,study_1,,60.0781015319933,,,5eeb60b1ac0f3906747f58ee,,,,,,2023.1.3,2023-10-01_13h37.59.183,,,Win32,,,,,,,,,,001
﻿study_1_pilot,,,,,,,,028839,2023-10-01_13h38.03.715,,65194c00a387dc51a96a0516,,study_1,,60.0781015319933,,,5eeb60b1ac0f3906747f58ee,,,,,,2023.1.3,2023-10-01_13h37.59.183,,,Win32,,,,,,,,,,001
﻿study_1_pilot,,,,,,,,028839,2023-10-01_13h38.03.715,,65194c00a387dc51a96a0516,,study_1,,60.0781015319933,,,5eeb60b1ac0f3906747f58ee,,,,,,2023.1.3,2023-10-01_13h37.59.183,,,Win32,,,,,,,,,,001
﻿study_1_pilot,,,,,,,,028839,2023-10-01_13h38.03.715,,65194c00a387dc51a96a0516,,study_1,,60.0781015319933,,,5eeb60b1ac0f3906747f58ee,,,,,,2023.1.3,2023-10-01_13h37.59.183,,,Win32,,,,,,,,,,001
﻿study_1_pilot,,,,,,,,028839,2023-10-01_13h38.03.715,,65194c00a387dc51a96a0516,,study_1,,60.0781015319933,,,5eeb60b1ac0f3906747f58ee,,,,,,2023.1.3,2023-10-01_13h37.59.183,,,Win32,,,,,,,,,,001
﻿study_1_pilot,,,,,,,,028839,2023-10-01_13h38.03.715,,65194c00a387dc51a96a0516,,study_1,,60.0781015319933,,,5eeb60b1ac0f3906747f58ee,,,,,,2023.1.3,2023-10-01_13h37.59.183,,,Win32,,,,,,,,,,001
﻿study_1_pilot,,,,,,,,028839,2023-10-01_13h38.03.715,,65194c00a387dc51a96a0516,,study_1,,60.0781015319933,,,5eeb60b1ac0f3906747f58ee,,,,,,2023.1.3,2023-10-01_13h37.59.183,,,Win32,,,,,,,,,,001
﻿study_1_pilot,,,,,,,,028839,2023-10-01_13h38.03.715,,65194c00a387dc51a96a0516,,study_1,,60.0781015319933,,,5eeb60b1ac0f3906747f58ee,,,,,,2023.1.3,2023-10-01_13h37.59.183,,,Win32,,,,,,,,,,001
﻿study_1_pilot,,,,,,,,028839,2023-10-01_13h38.03.715,,65194c00a387dc51a96a0516,,study_1,,60.0781015319933,,,5eeb60b1ac0f3906747f58ee,,,,,,2023.1.3,2023-10-01_13h37.59.183,,,Win32,,,,,,,,,,001
﻿study_1_pilot,,,,,,,,028839,2023-10-01_13h38.03.715,,65194c00a387dc51a96a0516,,study_1,,60.0781015319933,,,5eeb60b1ac0f3906747f58ee,,,,,,2023.1.3,2023-10-01_13h37.59.183,,,Win32,,,,,,,,,,001
﻿study_1_pilot,,,,,,,,028839,2023-10-01_13h38.03.715,,65194c00a387dc51a96a0516,,study_1,,60.0781015319933,,,5eeb60b1ac0f3906747f58ee,,,,,,2023.1.3,2023-10-01_13h37.59.183,,,Win32,,,,,,,,,,001
﻿study_1_pilot,,,,,,,,028839,2023-10-01_13h38.03.715,,65194c00a387dc51a96a0516,,study_1,,60.0781015319933,,,5eeb60b1ac0f3906747f58ee,,,,,,2023.1.3,2023-10-01_13h37.59.183,,,Win32,,,,,,,,,,001
﻿study_1_pilot,,,,,,,,028839,2023-10-01_13h38.03.715,,65194c00a387dc51a96a0516,,study_1,,60.0781015319933,,,5eeb60b1ac0f3906747f58ee,,,,,,2023.1.3,2023-10-01_13h37.59.183,,,Win32,,,,,,,,,,001
﻿study_1_pilot,,,,,,,,028839,2023-10-01_13h38.03.715,,65194c00a387dc51a96a0516,,study_1,,60.0781015319933,,,5eeb60b1ac0f3906747f58ee,,,,,,2023.1.3,2023-10-01_13h37.59.183,,,Win32,,,,,,,,,,001
﻿study_1_pilot,,,,,,,,028839,2023-10-01_13h38.03.715,,65194c00a387dc51a96a0516,,study_1,,60.0781015319933,,,5eeb60b1ac0f3906747f58ee,,,,,,2023.1.3,2023-10-01_13h37.59.183,,,Win32,,,,,,,,,,001
﻿study_1_pilot,,,,,,,,028839,2023-10-01_13h38.03.715,,65194c00a387dc51a96a0516,,study_1,,60.0781015319933,,,5eeb60b1ac0f3906747f58ee,,,,,,2023.1.3,2023-10-01_13h37.59.183,,,Win32,,,,,,,,,,001
﻿study_1_pilot,,,,,,,,028839,2023-10-01_13h38.03.715,,65194c00a387dc51a96a0516,,study_1,,60.0781015319933,,,5eeb60b1ac0f3906747f58ee,,,,,,2023.1.3,2023-10-01_13h37.59.183,,,Win32,,,,,,,,,,001
﻿study_1_pilot,,,6.150699999988092,,,,,028839,2023-10-01_13h38.03.715,,65194c00a387dc51a96a0516,,study_1,,60.0781015319933,,,5eeb60b1ac0f3906747f58ee,2,,,,,2023.1.3,2023-10-01_13h37.59.183,,,Win32,,,,,,,,,,001
﻿study_1_pilot,,,,,,,,028839,2023-10-01_13h38.03.715,,65194c00a387dc51a96a0516,,study_1,,60.0781015319933,12.730599999994041,,5eeb60b1ac0f3906747f58ee,,,,,,2023.1.3,2023-10-01_13h37.59.183,,,Win32,,,,,,,,space,,001
﻿study_1_pilot,,,,,,,,028839,2023-10-01_13h38.03.715,space,65194c00a387dc51a96a0516,,study_1,,60.0781015319933,,,5eeb60b1ac0f3906747f58ee,,,,,,2023.1.3,2023-10-01_13h37.59.183,,,Win32,,,,,,,5.246800000011945,,,001
﻿study_1_pilot,,,,,,,,028839,2023-10-01_13h38.03.715,,65194c00a387dc51a96a0516,,study_1,,60.0781015319933,,,5eeb60b1ac0f3906747f58ee,,,,,,2023.1.3,2023-10-01_13h37.59.183,2,,Win32,,,,,14.650000000000006,,,,,001
﻿study_1_pilot,,,,,,,,028839,2023-10-01_13h38.03.715,,65194c00a387dc51a96a0516,,study_1,,60.0781015319933,,,5eeb60b1ac0f3906747f58ee,,,,,,2023.1.3,2023-10-01_13h37.59.183,,,Win32,,,2,,,,,,,001
﻿study_1_pilot,,,,,,,,028839,2023-10-01_13h38.03.715,,65194c00a387dc51a96a0516,,study_1,,60.0781015319933,,,5eeb60b1ac0f3906747f58ee,,,,,,2023.1.3,2023-10-01_13h37.59.183,,,Win32,,,,,,,,,,001
﻿study_1_pilot,0,condition_2,,1,agent_2,4.28,3.32,028839,2023-10-01_13h38.03.715,,65194c00a387dc51a96a0516,agent_1,study_1,3.32,60.0781015319933,,1:2+2:2,5eeb60b1ac0f3906747f58ee,,,condition_2,0,0,2023.1.3,2023-10-01_13h37.59.183,,1,Win32,,3.0452000000178714,,0,,1,,,1,001
﻿study_1_pilot,1,condition_2,,1,agent_2,6.54,4.46,028839,2023-10-01_13h38.03.715,,65194c00a387dc51a96a0516,agent_1,study_1,4.46,60.0781015319933,,1:2+2:2,5eeb60b1ac0f3906747f58ee,,,condition_2,1,0,2023.1.3,2023-10-01_13h37.59.183,,1,Win32,,2.0813000000119075,,1,,1,,,2,001
﻿study_1_pilot,2,condition_2,,2,agent_2,5.85,4.54,028839,2023-10-01_13h38.03.715,,65194c00a387dc51a96a0516,agent_1,study_1,5.85,60.0781015319933,,1:2+2:2,5eeb60b1ac0f3906747f58ee,,,condition_2,2,0,2023.1.3,2023-10-01_13h37.59.183,,2,Win32,,0.9004000000059591,,2,,1,,,3,001
﻿study_1_pilot,3,condition_2,,1,agent_2,5.8,2.66,028839,2023-10-01_13h38.03.715,,65194c00a387dc51a96a0516,agent_1,study_1,2.66,60.0781015319933,,1:2+2:2,5eeb60b1ac0f3906747f58ee,,,condition_2,3,0,2023.1.3,2023-10-01_13h37.59.183,,1,Win32,,1.0522000000178764,,3,,1,,,4,001
﻿study_1_pilot,4,condition_2,,2,agent_2,4.66,1.92,028839,2023-10-01_13h38.03.715,,65194c00a387dc51a96a0516,agent_1,study_1,4.66,60.0781015319933,,1:2+2:2,5eeb60b1ac0f3906747f58ee,,,condition_2,4,0,2023.1.3,2023-10-01_13h37.59.183,,2,Win32,,1.2417999999821063,,4,,1,,,5,001
﻿study_1_pilot,5,condition_2,,2,agent_2,5.1,1.51,028839,2023-10-01_13h38.03.715,,65194c00a387dc51a96a0516,agent_1,study_1,5.1,60.0781015319933,,1:2+2:2,5eeb60b1ac0f3906747f58ee,,,condition_2,5,0,2023.1.3,2023-10-01_13h37.59.183,,2,Win32,,0.8005999999940343,,5,,1,,,6,001
﻿study_1_pilot,6,condition_2,,2,agent_2,5.15,2.75,028839,2023-10-01_13h38.03.715,,65194c00a387dc51a96a0516,agent_1,study_1,5.15,60.0781015319933,,1:2+2:2,5eeb60b1ac0f3906747f58ee,,,condition_2,6,0,2023.1.3,2023-10-01_13h37.59.183,,2,Win32,,0.6168999999761695,,6,,1,,,7,001
﻿study_1_pilot,7,condition_2,,1,agent_2,2.54,2.88,028839,2023-10-01_13h38.03.715,,65194c00a387dc51a96a0516,agent_1,study_1,2.88,60.0781015319933,,1:2+2:2,5eeb60b1ac0f3906747f58ee,,,condition_2,7,0,2023.1.3,2023-10-01_13h37.59.183,,1,Win32,,0.5182999999821334,,7,,1,,,8,001
﻿study_1_pilot,8,condition_2,,1,agent_2,4.66,2.35,028839,2023-10-01_13h38.03.715,,65194c00a387dc51a96a0516,agent_1,study_1,2.35,60.0781015319933,,1:2+2:2,5eeb60b1ac0f3906747f58ee,,,condition_2,8,0,2023.1.3,2023-10-01_13h37.59.183,,1,Win32,,0.4412000000178864,,8,,1,,,9,001
﻿study_1_pilot,9,condition_2,,2,agent_2,3.69,3.31,028839,2023-10-01_13h38.03.715,,65194c00a387dc51a96a0516,agent_1,study_1,3.69,60.0781015319933,,1:2+2:2,5eeb60b1ac0f3906747f58ee,,,condition_2,9,0,2023.1.3,2023-10-01_13h37.59.183,,2,Win32,,0.47150000000002024,,9,,1,,,10,001
﻿study_1_pilot,10,condition_2,,2,agent_2,3.09,3.12,028839,2023-10-01_13h38.03.715,,65194c00a387dc51a96a0516,agent_1,study_1,3.09,60.0781015319933,,1:2+2:2,5eeb60b1ac0f3906747f58ee,,,condition_2,10,0,2023.1.3,2023-10-01_13h37.59.183,,2,Win32,,0.600699999988052,,10,,1,,,11,001
﻿study_1_pilot,11,condition_2,,1,agent_2,5.58,2.16,028839,2023-10-01_13h38.03.715,,65194c00a387dc51a96a0516,agent_1,study_1,2.16,60.0781015319933,,1:2+2:2,5eeb60b1ac0f3906747f58ee,,,condition_2,11,0,2023.1.3,2023-10-01_13h37.59.183,,1,Win32,,0.7876999999880638,,11,,1,,,12,001
﻿study_1_pilot,12,condition_2,,2,agent_2,3.28,3.6,028839,2023-10-01_13h38.03.715,,65194c00a387dc51a96a0516,agent_1,study_1,3.28,60.0781015319933,,1:2+2:2,5eeb60b1ac0f3906747f58ee,,,condition_2,12,0,2023.1.3,2023-10-01_13h37.59.183,,2,Win32,,0.7723000000119384,,12,,1,,,13,001
﻿study_1_pilot,13,condition_2,,1,agent_2,4.6,2.75,028839,2023-10-01_13h38.03.715,,65194c00a387dc51a96a0516,agent_1,study_1,2.75,60.0781015319933,,1:2+2:2,5eeb60b1ac0f3906747f58ee,,,condition_2,13,0,2023.1.3,2023-10-01_13h37.59.183,,1,Win32,,0.5409000000059905,,13,,1,,,14,001
﻿study_1_pilot,14,condition_2,,2,agent_2,3.42,2.82,028839,2023-10-01_13h38.03.715,,65194c00a387dc51a96a0516,agent_1,study_1,3.42,60.0781015319933,,1:2+2:2,5eeb60b1ac0f3906747f58ee,,,condition_2,14,0,2023.1.3,2023-10-01_13h37.59.183,,2,Win32,,1.4190000000000396,,14,,1,,,15,001
﻿study_1_pilot,15,condition_2,,1,agent_2,6.84,3.02,028839,2023-10-01_13h38.03.715,,65194c00a387dc51a96a0516,agent_1,study_1,3.02,60.0781015319933,,1:2+2:2,5eeb60b1ac0f3906747f58ee,,,condition_2,15,0,2023.1.3,2023-10-01_13h37.59.183,,1,Win32,,0.5504000000059932,,15,,1,,,16,001
﻿study_1_pilot,16,condition_2,,1,agent_2,5.98,2.52,028839,2023-10-01_13h38.03.715,,65194c00a387dc51a96a0516,agent_1,study_1,2.52,60.0781015319933,,1:2+2:2,5eeb60b1ac0f3906747f58ee,,,condition_2,16,0,2023.1.3,2023-10-01_13h37.59.183,,1,Win32,,0.7170999999940477,,16,,1,,,17,001
﻿study_1_pilot,17,condition_2,,2,agent_2,4.67,2.26,028839,2023-10-01_13h38.03.715,,65194c00a387dc51a96a0516,agent_1,study_1,4.67,60.0781015319933,,1:2+2:2,5eeb60b1ac0f3906747f58ee,,,condition_2,17,0,2023.1.3,2023-10-01_13h37.59.183,,2,Win32,,0.6178000000119255,,17,,1,,,18,001
﻿study_1_pilot,18,condition_2,,2,agent_2,6.19,4.3,028839,2023-10-01_13h38.03.715,,65194c00a387dc51a96a0516,agent_1,study_1,6.19,60.0781015319933,,1:2+2:2,5eeb60b1ac0f3906747f58ee,,,condition_2,18,0,2023.1.3,2023-10-01_13h37.59.183,,2,Win32,,0.5847999999821241,,18,,1,,,19,001
﻿study_1_pilot,19,condition_2,,1,agent_2,4.67,3.56,028839,2023-10-01_13h38.03.715,,65194c00a387dc51a96a0516,agent_1,study_1,3.56,60.0781015319933,,1:2+2:2,5eeb60b1ac0f3906747f58ee,,,condition_2,19,0,2023.1.3,2023-10-01_13h37.59.183,,1,Win32,,0.8729999999999905,,19,,1,,,20,001
﻿study_1_pilot,20,condition_2,,2,agent_2,5.17,1.19,028839,2023-10-01_13h38.03.715,,65194c00a387dc51a96a0516,agent_1,study_1,5.17,60.0781015319933,,1:2+2:2,5eeb60b1ac0f3906747f58ee,,,condition_2,20,0,2023.1.3,2023-10-01_13h37.59.183,,2,Win32,,0.3897999999821309,,20,,1,,,21,001
﻿study_1_pilot,21,condition_2,,2,agent_2,4.57,3.44,028839,2023-10-01_13h38.03.715,,65194c00a387dc51a96a0516,agent_1,study_1,4.57,60.0781015319933,,1:2+2:2,5eeb60b1ac0f3906747f58ee,,,condition_2,21,0,2023.1.3,2023-10-01_13h37.59.183,,2,Win32,,0.4377000000178555,,21,,1,,,22,001
﻿study_1_pilot,22,condition_2,,2,agent_2,6.97,1.56,028839,2023-10-01_13h38.03.715,,65194c00a387dc51a96a0516,agent_1,study_1,6.97,60.0781015319933,,1:2+2:2,5eeb60b1ac0f3906747f58ee,,,condition_2,22,0,2023.1.3,2023-10-01_13h37.59.183,,2,Win32,,0.6171000000238678,,22,,1,,,23,001
﻿study_1_pilot,23,condition_2,,1,agent_2,5.56,3.95,028839,2023-10-01_13h38.03.715,,65194c00a387dc51a96a0516,agent_1,study_1,3.95,60.0781015319933,,1:2+2:2,5eeb60b1ac0f3906747f58ee,,,condition_2,23,0,2023.1.3,2023-10-01_13h37.59.183,,1,Win32,,1.500500000000045,,23,,1,,,24,001
﻿study_1_pilot,24,condition_2,,1,agent_2,4.36,2.28,028839,2023-10-01_13h38.03.715,,65194c00a387dc51a96a0516,agent_1,study_1,2.28,60.0781015319933,,1:2+2:2,5eeb60b1ac0f3906747f58ee,,,condition_2,24,0,2023.1.3,2023-10-01_13h37.59.183,,1,Win32,,0.3505000000000109,,24,,1,,,25,001
﻿study_1_pilot,25,condition_2,,2,agent_2,4.95,3.05,028839,2023-10-01_13h38.03.715,,65194c00a387dc51a96a0516,agent_1,study_1,4.95,60.0781015319933,,1:2+2:2,5eeb60b1ac0f3906747f58ee,,,condition_2,25,0,2023.1.3,2023-10-01_13h37.59.183,,2,Win32,,0.43240000000594137,,25,,1,,,26,001
﻿study_1_pilot,26,condition_2,,2,agent_2,6.13,1.44,028839,2023-10-01_13h38.03.715,,65194c00a387dc51a96a0516,agent_1,study_1,6.13,60.0781015319933,,1:2+2:2,5eeb60b1ac0f3906747f58ee,,,condition_2,26,0,2023.1.3,2023-10-01_13h37.59.183,,2,Win32,,0.47050000000001546,,26,,1,,,27,001
﻿study_1_pilot,27,condition_2,,2,agent_2,5.29,0.7,028839,2023-10-01_13h38.03.715,,65194c00a387dc51a96a0516,agent_1,study_1,5.29,60.0781015319933,,1:2+2:2,5eeb60b1ac0f3906747f58ee,,,condition_2,27,0,2023.1.3,2023-10-01_13h37.59.183,,2,Win32,,0.3978999999761186,,27,,1,,,28,001
﻿study_1_pilot,28,condition_2,,2,agent_2,5.46,4.16,028839,2023-10-01_13h38.03.715,,65194c00a387dc51a96a0516,agent_1,study_1,5.46,60.0781015319933,,1:2+2:2,5eeb60b1ac0f3906747f58ee,,,condition_2,28,0,2023.1.3,2023-10-01_13h37.59.183,,2,Win32,,0.35300000000000864,,28,,1,,,29,001
﻿study_1_pilot,29,condition_2,,1,agent_2,6.18,2.3,028839,2023-10-01_13h38.03.715,,65194c00a387dc51a96a0516,agent_1,study_1,2.3,60.0781015319933,,1:2+2:2,5eeb60b1ac0f3906747f58ee,,,condition_2,29,0,2023.1.3,2023-10-01_13h37.59.183,,1,Win32,,1.1240000000000236,,29,,1,,,30,001
﻿study_1_pilot,30,condition_2,,2,agent_2,3.59,1.43,028839,2023-10-01_13h38.03.715,,65194c00a387dc51a96a0516,agent_1,study_1,3.59,60.0781015319933,,1:2+2:2,5eeb60b1ac0f3906747f58ee,,,condition_2,30,0,2023.1.3,2023-10-01_13h37.59.183,,2,Win32,,0.6387000000179341,,30,,1,,,31,001
﻿study_1_pilot,31,condition_2,,1,agent_2,4.38,3.52,028839,2023-10-01_13h38.03.715,,65194c00a387dc51a96a0516,agent_1,study_1,3.52,60.0781015319933,,1:2+2:2,5eeb60b1ac0f3906747f58ee,,,condition_2,31,0,2023.1.3,2023-10-01_13h37.59.183,,1,Win32,,0.9010000000000105,,31,,1,,,32,001
﻿study_1_pilot,32,condition_2,,2,agent_2,4.34,1.94,028839,2023-10-01_13h38.03.715,,65194c00a387dc51a96a0516,agent_1,study_1,4.34,60.0781015319933,,1:2+2:2,5eeb60b1ac0f3906747f58ee,,,condition_2,32,0,2023.1.3,2023-10-01_13h37.59.183,,2,Win32,,0.3684999999999832,,32,,1,,,33,001
﻿study_1_pilot,33,condition_2,,1,agent_2,5.71,3.05,028839,2023-10-01_13h38.03.715,,65194c00a387dc51a96a0516,agent_1,study_1,3.05,60.0781015319933,,1:2+2:2,5eeb60b1ac0f3906747f58ee,,,condition_2,33,0,2023.1.3,2023-10-01_13h37.59.183,,1,Win32,,0.41749999999996135,,33,,1,,,34,001
﻿study_1_pilot,34,condition_2,,2,agent_2,3.37,3.85,028839,2023-10-01_13h38.03.715,,65194c00a387dc51a96a0516,agent_1,study_1,3.37,60.0781015319933,,1:2+2:2,5eeb60b1ac0f3906747f58ee,,,condition_2,34,0,2023.1.3,2023-10-01_13h37.59.183,,2,Win32,,0.33369999998808453,,34,,1,,,35,001
﻿study_1_pilot,35,condition_2,,2,agent_2,4.55,3.43,028839,2023-10-01_13h38.03.715,,65194c00a387dc51a96a0516,agent_1,study_1,4.55,60.0781015319933,,1:2+2:2,5eeb60b1ac0f3906747f58ee,,,condition_2,35,0,2023.1.3,2023-10-01_13h37.59.183,,2,Win32,,0.32229999998213543,,35,,1,,,36,001
﻿study_1_pilot,36,condition_2,,2,agent_2,6.12,3.52,028839,2023-10-01_13h38.03.715,,65194c00a387dc51a96a0516,agent_1,study_1,6.12,60.0781015319933,,1:2+2:2,5eeb60b1ac0f3906747f58ee,,,condition_2,36,0,2023.1.3,2023-10-01_13h37.59.183,,2,Win32,,0.5838000000118768,,36,,1,,,37,001
﻿study_1_pilot,37,condition_2,,2,agent_2,5.19,2.75,028839,2023-10-01_13h38.03.715,,65194c00a387dc51a96a0516,agent_1,study_1,5.19,60.0781015319933,,1:2+2:2,5eeb60b1ac0f3906747f58ee,,,condition_2,37,0,2023.1.3,2023-10-01_13h37.59.183,,2,Win32,,0.5013999999761722,,37,,1,,,38,001
﻿study_1_pilot,38,condition_2,,2,agent_2,4.64,2.5,028839,2023-10-01_13h38.03.715,,65194c00a387dc51a96a0516,agent_1,study_1,4.64,60.0781015319933,,1:2+2:2,5eeb60b1ac0f3906747f58ee,,,condition_2,38,0,2023.1.3,2023-10-01_13h37.59.183,,2,Win32,,0.45699999999999363,,38,,1,,,39,001
﻿study_1_pilot,39,condition_2,,2,agent_2,5.25,4.26,028839,2023-10-01_13h38.03.715,,65194c00a387dc51a96a0516,agent_1,study_1,5.25,60.0781015319933,,1:2+2:2,5eeb60b1ac0f3906747f58ee,,,condition_2,39,0,2023.1.3,2023-10-01_13h37.59.183,,2,Win32,,0.43849999999997635,,39,,1,,,40,001
﻿study_1_pilot,40,condition_2,,2,agent_2,5.36,3.56,028839,2023-10-01_13h38.03.715,,65194c00a387dc51a96a0516,agent_1,study_1,5.36,60.0781015319933,,1:2+2:2,5eeb60b1ac0f3906747f58ee,,,condition_2,40,0,2023.1.3,2023-10-01_13h37.59.183,,2,Win32,,0.5004999999999882,,40,,1,,,41,001
﻿study_1_pilot,41,condition_2,,2,agent_2,5.02,2.66,028839,2023-10-01_13h38.03.715,,65194c00a387dc51a96a0516,agent_1,study_1,5.02,60.0781015319933,,1:2+2:2,5eeb60b1ac0f3906747f58ee,,,condition_2,41,0,2023.1.3,2023-10-01_13h37.59.183,,2,Win32,,0.5363000000119769,,41,,1,,,42,001
﻿study_1_pilot,42,condition_2,,2,agent_2,4.76,3.72,028839,2023-10-01_13h38.03.715,,65194c00a387dc51a96a0516,agent_1,study_1,4.76,60.0781015319933,,1:2+2:2,5eeb60b1ac0f3906747f58ee,,,condition_2,42,0,2023.1.3,2023-10-01_13h37.59.183,,2,Win32,,0.41849999999999454,,42,,1,,,43,001
﻿study_1_pilot,43,condition_2,,1,agent_2,4.61,3.86,028839,2023-10-01_13h38.03.715,,65194c00a387dc51a96a0516,agent_1,study_1,3.86,60.0781015319933,,1:2+2:2,5eeb60b1ac0f3906747f58ee,,,condition_2,43,0,2023.1.3,2023-10-01_13h37.59.183,,1,Win32,,0.4895000000000209,,43,,1,,,44,001
﻿study_1_pilot,44,condition_1,,1,agent_2,2.65,3.16,028839,2023-10-01_13h38.03.715,,65194c00a387dc51a96a0516,agent_1,study_1,3.16,60.0781015319933,,1:1+2:1,5eeb60b1ac0f3906747f58ee,,,condition_1,44,0,2023.1.3,2023-10-01_13h37.59.183,,1,Win32,,0.31890000000595364,,44,,1,,,45,001
﻿study_1_pilot,45,condition_1,,2,agent_2,3.38,2.5,028839,2023-10-01_13h38.03.715,,65194c00a387dc51a96a0516,agent_1,study_1,3.38,60.0781015319933,,1:1+2:1,5eeb60b1ac0f3906747f58ee,,,condition_1,45,0,2023.1.3,2023-10-01_13h37.59.183,,2,Win32,,0.5036000000238801,,45,,1,,,46,001
﻿study_1_pilot,46,condition_1,,2,agent_2,3.26,2.03,028839,2023-10-01_13h38.03.715,,65194c00a387dc51a96a0516,agent_1,study_1,3.26,60.0781015319933,,1:1+2:1,5eeb60b1ac0f3906747f58ee,,,condition_1,46,0,2023.1.3,2023-10-01_13h37.59.183,,2,Win32,,0.35520000001787366,,46,,1,,,47,001
﻿study_1_pilot,47,condition_1,,1,agent_2,3.96,2.89,028839,2023-10-01_13h38.03.715,,65194c00a387dc51a96a0516,agent_1,study_1,2.89,60.0781015319933,,1:1+2:1,5eeb60b1ac0f3906747f58ee,,,condition_1,47,0,2023.1.3,2023-10-01_13h37.59.183,,1,Win32,,0.29790000000593864,,47,,1,,,48,001
﻿study_1_pilot,48,condition_1,,1,agent_2,2.51,4.09,028839,2023-10-01_13h38.03.715,,65194c00a387dc51a96a0516,agent_1,study_1,4.09,60.0781015319933,,1:1+2:1,5eeb60b1ac0f3906747f58ee,,,condition_1,48,0,2023.1.3,2023-10-01_13h37.59.183,,1,Win32,,0.4003000000118959,,48,,1,,,49,001
﻿study_1_pilot,49,condition_1,,1,agent_2,3.08,1.79,028839,2023-10-01_13h38.03.715,,65194c00a387dc51a96a0516,agent_1,study_1,1.79,60.0781015319933,,1:1+2:1,5eeb60b1ac0f3906747f58ee,,,condition_1,49,0,2023.1.3,2023-10-01_13h37.59.183,,1,Win32,,0.3507000000178664,,49,,1,,,50,001
﻿study_1_pilot,50,condition_1,,2,agent_2,2.84,1.23,028839,2023-10-01_13h38.03.715,,65194c00a387dc51a96a0516,agent_1,study_1,2.84,60.0781015319933,,1:1+2:1,5eeb60b1ac0f3906747f58ee,,,condition_1,50,0,2023.1.3,2023-10-01_13h37.59.183,,2,Win32,,0.3052999999820827,,50,,1,,,51,001
﻿study_1_pilot,51,condition_1,,2,agent_2,4.27,2.51,028839,2023-10-01_13h38.03.715,,65194c00a387dc51a96a0516,agent_1,study_1,4.27,60.0781015319933,,1:1+2:1,5eeb60b1ac0f3906747f58ee,,,condition_1,51,0,2023.1.3,2023-10-01_13h37.59.183,,2,Win32,,0.3172000000179196,,51,,1,,,52,001
﻿study_1_pilot,,,,,,,,028839,2023-10-01_13h38.03.715,,65194c00a387dc51a96a0516,,study_1,,60.0781015319933,,,5eeb60b1ac0f3906747f58ee,,,,,,2023.1.3,2023-10-01_13h37.59.183,,,Win32,,,,,,,,,,001
﻿study_1_pilot,,,,,,,,613701,2023-10-01_12h38.32.445,,65194c18ca95cdf1e8a6f56b,,study_1,,59.995200383970484,,,6138c06a4253be55e35333ba,,standard,,,,2023.1.3,2023-10-01_12h38.21.867,,,Win32,,,,,,,,,,001
﻿study_1_pilot,,,,,,,,613701,2023-10-01_12h38.32.445,,65194c18ca95cdf1e8a6f56b,,study_1,,59.995200383970484,,,6138c06a4253be55e35333ba,,,,,,2023.1.3,2023-10-01_12h38.21.867,,,Win32,,,,,,,,,,001
﻿study_1_pilot,,,,,,,,613701,2023-10-01_12h38.32.445,,65194c18ca95cdf1e8a6f56b,,study_1,,59.995200383970484,,,6138c06a4253be55e35333ba,,,,,,2023.1.3,2023-10-01_12h38.21.867,,,Win32,,,,,,,,,,001
﻿study_1_pilot,,,,,,,,613701,2023-10-01_12h38.32.445,,65194c18ca95cdf1e8a6f56b,,study_1,,59.995200383970484,,,6138c06a4253be55e35333ba,,,,,,2023.1.3,2023-10-01_12h38.21.867,,,Win32,,,,,,,,,,001
﻿study_1_pilot,,,,,,,,613701,2023-10-01_12h38.32.445,,65194c18ca95cdf1e8a6f56b,,study_1,,59.995200383970484,,,6138c06a4253be55e35333ba,,,,,,2023.1.3,2023-10-01_12h38.21.867,,,Win32,,,,,,,,,,001
﻿study_1_pilot,,,,,,,,613701,2023-10-01_12h38.32.445,,65194c18ca95cdf1e8a6f56b,,study_1,,59.995200383970484,,,6138c06a4253be55e35333ba,,,,,,2023.1.3,2023-10-01_12h38.21.867,,,Win32,,,,,,,,,,001
﻿study_1_pilot,,,,,,,,613701,2023-10-01_12h38.32.445,,65194c18ca95cdf1e8a6f56b,,study_1,,59.995200383970484,,,6138c06a4253be55e35333ba,,,,,,2023.1.3,2023-10-01_12h38.21.867,,,Win32,,,,,,,,,,001
﻿study_1_pilot,,,,,,,,613701,2023-10-01_12h38.32.445,,65194c18ca95cdf1e8a6f56b,,study_1,,59.995200383970484,,,6138c06a4253be55e35333ba,,,,,,2023.1.3,2023-10-01_12h38.21.867,,,Win32,,,,,,,,,,001
﻿study_1_pilot,,,,,,,,613701,2023-10-01_12h38.32.445,,65194c18ca95cdf1e8a6f56b,,study_1,,59.995200383970484,,,6138c06a4253be55e35333ba,,,,,,2023.1.3,2023-10-01_12h38.21.867,,,Win32,,,,,,,,,,001
﻿study_1_pilot,,,,,,,,613701,2023-10-01_12h38.32.445,,65194c18ca95cdf1e8a6f56b,,study_1,,59.995200383970484,,,6138c06a4253be55e35333ba,,,,,,2023.1.3,2023-10-01_12h38.21.867,,,Win32,,,,,,,,,,001
﻿study_1_pilot,,,,,,,,613701,2023-10-01_12h38.32.445,,65194c18ca95cdf1e8a6f56b,,study_1,,59.995200383970484,,,6138c06a4253be55e35333ba,,,,,,2023.1.3,2023-10-01_12h38.21.867,,,Win32,,,,,,,,,,001
﻿study_1_pilot,,,,,,,,613701,2023-10-01_12h38.32.445,,65194c18ca95cdf1e8a6f56b,,study_1,,59.995200383970484,,,6138c06a4253be55e35333ba,,,,,,2023.1.3,2023-10-01_12h38.21.867,,,Win32,,,,,,,,,,001
﻿study_1_pilot,,,,,,,,613701,2023-10-01_12h38.32.445,,65194c18ca95cdf1e8a6f56b,,study_1,,59.995200383970484,,,6138c06a4253be55e35333ba,,,,,,2023.1.3,2023-10-01_12h38.21.867,,,Win32,,,,,,,,,,001
﻿study_1_pilot,,,,,,,,613701,2023-10-01_12h38.32.445,,65194c18ca95cdf1e8a6f56b,,study_1,,59.995200383970484,,,6138c06a4253be55e35333ba,,,,,,2023.1.3,2023-10-01_12h38.21.867,,,Win32,,,,,,,,,,001
﻿study_1_pilot,,,,,,,,613701,2023-10-01_12h38.32.445,,65194c18ca95cdf1e8a6f56b,,study_1,,59.995200383970484,,,6138c06a4253be55e35333ba,,,,,,2023.1.3,2023-10-01_12h38.21.867,,,Win32,,,,,,,,,,001
﻿study_1_pilot,,,,,,,,613701,2023-10-01_12h38.32.445,,65194c18ca95cdf1e8a6f56b,,study_1,,59.995200383970484,,,6138c06a4253be55e35333ba,,,,,,2023.1.3,2023-10-01_12h38.21.867,,,Win32,,,,,,,,,,001
﻿study_1_pilot,,,,,,,,613701,2023-10-01_12h38.32.445,,65194c18ca95cdf1e8a6f56b,,study_1,,59.995200383970484,,,6138c06a4253be55e35333ba,,,,,,2023.1.3,2023-10-01_12h38.21.867,,,Win32,,,,,,,,,,001
﻿study_1_pilot,,,,,,,,613701,2023-10-01_12h38.32.445,,65194c18ca95cdf1e8a6f56b,,study_1,,59.995200383970484,,,6138c06a4253be55e35333ba,,,,,,2023.1.3,2023-10-01_12h38.21.867,,,Win32,,,,,,,,,,001
﻿study_1_pilot,,,,,,,,613701,2023-10-01_12h38.32.445,,65194c18ca95cdf1e8a6f56b,,study_1,,59.995200383970484,,,6138c06a4253be55e35333ba,,,,,,2023.1.3,2023-10-01_12h38.21.867,,,Win32,,,,,,,,,,001
﻿study_1_pilot,,,,,,,,613701,2023-10-01_12h38.32.445,,65194c18ca95cdf1e8a6f56b,,study_1,,59.995200383970484,,,6138c06a4253be55e35333ba,,,,,,2023.1.3,2023-10-01_12h38.21.867,,,Win32,,,,,,,,,,001
﻿study_1_pilot,,,,,,,,613701,2023-10-01_12h38.32.445,,65194c18ca95cdf1e8a6f56b,,study_1,,59.995200383970484,,,6138c06a4253be55e35333ba,,,,,,2023.1.3,2023-10-01_12h38.21.867,,,Win32,,,,,,,,,,001
﻿study_1_pilot,,,,,,,,613701,2023-10-01_12h38.32.445,,65194c18ca95cdf1e8a6f56b,,study_1,,59.995200383970484,,,6138c06a4253be55e35333ba,,,,,,2023.1.3,2023-10-01_12h38.21.867,,,Win32,,,,,,,,,,001
﻿study_1_pilot,,,7.214600000000559,,,,,613701,2023-10-01_12h38.32.445,,65194c18ca95cdf1e8a6f56b,,study_1,,59.995200383970484,,,6138c06a4253be55e35333ba,2,,,,,2023.1.3,2023-10-01_12h38.21.867,,,Win32,,,,,,,,,,001
﻿study_1_pilot,,,,,,,,613701,2023-10-01_12h38.32.445,,65194c18ca95cdf1e8a6f56b,,study_1,,59.995200383970484,13.994400000000383,,6138c06a4253be55e35333ba,,,,,,2023.1.3,2023-10-01_12h38.21.867,,,Win32,,,,,,,,space,,001
﻿study_1_pilot,,,,,,,,613701,2023-10-01_12h38.32.445,space,65194c18ca95cdf1e8a6f56b,,study_1,,59.995200383970484,,,6138c06a4253be55e35333ba,,,,,,2023.1.3,2023-10-01_12h38.21.867,,,Win32,,,,,,,3.678500000000014,,,001
﻿study_1_pilot,,,,,,,,613701,2023-10-01_12h38.32.445,,65194c18ca95cdf1e8a6f56b,,study_1,,59.995200383970484,,,6138c06a4253be55e35333ba,,,,,,2023.1.3,2023-10-01_12h38.21.867,1,,Win32,,,,,19.71569999999926,,,,,001
﻿study_1_pilot,,,,,,,,613701,2023-10-01_12h38.32.445,,65194c18ca95cdf1e8a6f56b,,study_1,,59.995200383970484,,,6138c06a4253be55e35333ba,,,,,,2023.1.3,2023-10-01_12h38.21.867,,,Win32,,,1,,,,,,,001
﻿study_1_pilot,,,,,,,,613701,2023-10-01_12h38.32.445,,65194c18ca95cdf1e8a6f56b,,study_1,,59.995200383970484,,,6138c06a4253be55e35333ba,,,,,,2023.1.3,2023-10-01_12h38.21.867,,,Win32,,,,,,,,,,001
﻿study_1_pilot,0,condition_2,,1,agent_2,4.28,3.32,613701,2023-10-01_12h38.32.445,,65194c18ca95cdf1e8a6f56b,agent_1,study_1,3.32,59.995200383970484,,1:2+2:2,6138c06a4253be55e35333ba,,,condition_2,0,0,2023.1.3,2023-10-01_12h38.21.867,,1,Win32,,4.681699999999239,,0,,1,,,1,001
﻿study_1_pilot,1,condition_2,,1,agent_2,6.54,4.46,613701,2023-10-01_12h38.32.445,,65194c18ca95cdf1e8a6f56b,agent_1,study_1,4.46,59.995200383970484,,1:2+2:2,6138c06a4253be55e35333ba,,,condition_2,1,0,2023.1.3,2023-10-01_12h38.21.867,,1,Win32,,2.8525000000000205,,1,,1,,,2,001
﻿study_1_pilot,2,condition_2,,1,agent_2,5.85,4.54,613701,2023-10-01_12h38.32.445,,65194c18ca95cdf1e8a6f56b,agent_1,study_1,4.54,59.995200383970484,,1:2+2:2,6138c06a4253be55e35333ba,,,condition_2,2,0,2023.1.3,2023-10-01_12h38.21.867,,1,Win32,,1.3964000000003693,,2,,1,,,3,001
﻿study_1_pilot,3,condition_2,,2,agent_2,5.8,2.66,613701,2023-10-01_12h38.32.445,,65194c18ca95cdf1e8a6f56b,agent_1,study_1,5.8,59.995200383970484,,1:2+2:2,6138c06a4253be55e35333ba,,,condition_2,3,0,2023.1.3,2023-10-01_12h38.21.867,,2,Win32,,1.7297000000001788,,3,,1,,,4,001
﻿study_1_pilot,4,condition_2,,2,agent_2,4.66,1.92,613701,2023-10-01_12h38.32.445,,65194c18ca95cdf1e8a6f56b,agent_1,study_1,4.66,59.995200383970484,,1:2+2:2,6138c06a4253be55e35333ba,,,condition_2,4,0,2023.1.3,2023-10-01_12h38.21.867,,2,Win32,,1.2508999999994614,,4,,1,,,5,001
﻿study_1_pilot,5,condition_2,,2,agent_2,5.1,1.51,613701,2023-10-01_12h38.32.445,,65194c18ca95cdf1e8a6f56b,agent_1,study_1,5.1,59.995200383970484,,1:2+2:2,6138c06a4253be55e35333ba,,,condition_2,5,0,2023.1.3,2023-10-01_12h38.21.867,,2,Win32,,1.685700000000196,,5,,1,,,6,001
﻿study_1_pilot,6,condition_2,,1,agent_2,5.15,2.75,613701,2023-10-01_12h38.32.445,,65194c18ca95cdf1e8a6f56b,agent_1,study_1,2.75,59.995200383970484,,1:2+2:2,6138c06a4253be55e35333ba,,,condition_2,6,0,2023.1.3,2023-10-01_12h38.21.867,,1,Win32,,1.0672999999998183,,6,,1,,,7,001
﻿study_1_pilot,7,condition_2,,2,agent_2,2.54,2.88,613701,2023-10-01_12h38.32.445,,65194c18ca95cdf1e8a6f56b,agent_1,study_1,2.54,59.995200383970484,,1:2+2:2,6138c06a4253be55e35333ba,,,condition_2,7,0,2023.1.3,2023-10-01_12h38.21.867,,2,Win32,,0.3223999999994476,,7,,1,,,8,001
﻿study_1_pilot,8,condition_2,,2,agent_2,4.66,2.35,613701,2023-10-01_12h38.32.445,,65194c18ca95cdf1e8a6f56b,agent_1,study_1,4.66,59.995200383970484,,1:2+2:2,6138c06a4253be55e35333ba,,,condition_2,8,0,2023.1.3,2023-10-01_12h38.21.867,,2,Win32,,0.34979999999981715,,8,,1,,,9,001
﻿study_1_pilot,9,condition_2,,2,agent_2,3.69,3.31,613701,2023-10-01_12h38.32.445,,65194c18ca95cdf1e8a6f56b,agent_1,study_1,3.69,59.995200383970484,,1:2+2:2,6138c06a4253be55e35333ba,,,condition_2,9,0,2023.1.3,2023-10-01_12h38.21.867,,2,Win32,,0.3077000000001817,,9,,1,,,10,001
﻿study_1_pilot,10,condition_2,,2,agent_2,3.09,3.12,613701,2023-10-01_12h38.32.445,,65194c18ca95cdf1e8a6f56b,agent_1,study_1,3.09,59.995200383970484,,1:2+2:2,6138c06a4253be55e35333ba,,,condition_2,10,0,2023.1.3,2023-10-01_12h38.21.867,,2,Win32,,0.4778999999994369,,10,,1,,,11,001
﻿study_1_pilot,11,condition_2,,2,agent_2,5.58,2.16,613701,2023-10-01_12h38.32.445,,65194c18ca95cdf1e8a6f56b,agent_1,study_1,5.58,59.995200383970484,,1:2+2:2,6138c06a4253be55e35333ba,,,condition_2,11,0,2023.1.3,2023-10-01_12h38.21.867,,2,Win32,,0.901299999999793,,11,,1,,,12,001
﻿study_1_pilot,12,condition_2,,2,agent_2,3.28,3.6,613701,2023-10-01_12h38.32.445,,65194c18ca95cdf1e8a6f56b,agent_1,study_1,3.28,59.995200383970484,,1:2+2:2,6138c06a4253be55e35333ba,,,condition_2,12,0,2023.1.3,2023-10-01_12h38.21.867,,2,Win32,,0.37109999999964316,,12,,1,,,13,001
﻿study_1_pilot,13,condition_2,,2,agent_2,4.6,2.75,613701,2023-10-01_12h38.32.445,,65194c18ca95cdf1e8a6f56b,agent_1,study_1,4.6,59.995200383970484,,1:2+2:2,6138c06a4253be55e35333ba,,,condition_2,13,0,2023.1.3,2023-10-01_12h38.21.867,,2,Win32,,0.9707000000001926,,13,,1,,,14,001
﻿study_1_pilot,14,condition_2,,1,agent_2,3.42,2.82,613701,2023-10-01_12h38.32.445,,65194c18ca95cdf1e8a6f56b,agent_1,study_1,2.82,59.995200383970484,,1:2+2:2,6138c06a4253be55e35333ba,,,condition_2,14,0,2023.1.3,2023-10-01_12h38.21.867,,1,Win32,,2.612599999999617,,14,,1,,,15,001
﻿study_1_pilot,15,condition_2,,2,agent_2,6.84,3.02,613701,2023-10-01_12h38.32.445,,65194c18ca95cdf1e8a6f56b,agent_1,study_1,6.84,59.995200383970484,,1:2+2:2,6138c06a4253be55e35333ba,,,condition_2,15,0,2023.1.3,2023-10-01_12h38.21.867,,2,Win32,,0.34050000000002,,15,,1,,,16,001
﻿study_1_pilot,16,condition_2,,2,agent_2,5.98,2.52,613701,2023-10-01_12h38.32.445,,65194c18ca95cdf1e8a6f56b,agent_1,study_1,5.98,59.995200383970484,,1:2+2:2,6138c06a4253be55e35333ba,,,condition_2,16,0,2023.1.3,2023-10-01_12h38.21.867,,2,Win32,,0.38209999999963884,,16,,1,,,17,001
﻿study_1_pilot,17,condition_2,,2,agent_2,4.67,2.26,613701,2023-10-01_12h38.32.445,,65194c18ca95cdf1e8a6f56b,agent_1,study_1,4.67,59.995200383970484,,1:2+2:2,6138c06a4253be55e35333ba,,,condition_2,17,0,2023.1.3,2023-10-01_12h38.21.867,,2,Win32,,0.339999999999975,,17,,1,,,18,001
﻿study_1_pilot,18,condition_2,,2,agent_2,6.19,4.3,613701,2023-10-01_12h38.32.445,,65194c18ca95cdf1e8a6f56b,agent_1,study_1,6.19,59.995200383970484,,1:2+2:2,6138c06a4253be55e35333ba,,,condition_2,18,0,2023.1.3,2023-10-01_12h38.21.867,,2,Win32,,1.0846000000005915,,18,,1,,,19,001
﻿study_1_pilot,19,condition_2,,2,agent_2,4.67,3.56,613701,2023-10-01_12h38.32.445,,65194c18ca95cdf1e8a6f56b,agent_1,study_1,4.67,59.995200383970484,,1:2+2:2,6138c06a4253be55e35333ba,,,condition_2,19,0,2023.1.3,2023-10-01_12h38.21.867,,2,Win32,,0.6334000000003925,,19,,1,,,20,001
﻿study_1_pilot,20,condition_2,,1,agent_2,5.17,1.19,613701,2023-10-01_12h38.32.445,,65194c18ca95cdf1e8a6f56b,agent_1,study_1,1.19,59.995200383970484,,1:2+2:2,6138c06a4253be55e35333ba,,,condition_2,20,0,2023.1.3,2023-10-01_12h38.21.867,,1,Win32,,1.0756000000005201,,20,,1,,,21,001
﻿study_1_pilot,21,condition_2,,2,agent_2,4.57,3.44,613701,2023-10-01_12h38.32.445,,65194c18ca95cdf1e8a6f56b,agent_1,study_1,4.57,59.995200383970484,,1:2+2:2,6138c06a4253be55e35333ba,,,condition_2,21,0,2023.1.3,2023-10-01_12h38.21.867,,2,Win32,,0.30270000000018626,,21,,1,,,22,001
﻿study_1_pilot,22,condition_2,,2,agent_2,6.97,1.56,613701,2023-10-01_12h38.32.445,,65194c18ca95cdf1e8a6f56b,agent_1,study_1,6.97,59.995200383970484,,1:2+2:2,6138c06a4253be55e35333ba,,,condition_2,22,0,2023.1.3,2023-10-01_12h38.21.867,,2,Win32,,0.3930000000000291,,22,,1,,,23,001
﻿study_1_pilot,23,condition_2,,2,agent_2,5.56,3.95,613701,2023-10-01_12h38.32.445,,65194c18ca95cdf1e8a6f56b,agent_1,study_1,5.56,59.995200383970484,,1:2+2:2,6138c06a4253be55e35333ba,,,condition_2,23,0,2023.1.3,2023-10-01_12h38.21.867,,2,Win32,,0.5277999999998428,,23,,1,,,24,001
﻿study_1_pilot,24,condition_2,,2,agent_2,4.36,2.28,613701,2023-10-01_12h38.32.445,,65194c18ca95cdf1e8a6f56b,agent_1,study_1,4.36,59.995200383970484,,1:2+2:2,6138c06a4253be55e35333ba,,,condition_2,24,0,2023.1.3,2023-10-01_12h38.21.867,,2,Win32,,0.5608999999994353,,24,,1,,,25,001
﻿study_1_pilot,25,condition_2,,2,agent_2,4.95,3.05,613701,2023-10-01_12h38.32.445,,65194c18ca95cdf1e8a6f56b,agent_1,study_1,4.95,59.995200383970484,,1:2+2:2,6138c06a4253be55e35333ba,,,condition_2,25,0,2023.1.3,2023-10-01_12h38.21.867,,2,Win32,,0.4830000000000041,,25,,1,,,26,001
﻿study_1_pilot,26,condition_2,,2,agent_2,6.13,1.44,613701,2023-10-01_12h38.32.445,,65194c18ca95cdf1e8a6f56b,agent_1,study_1,6.13,59.995200383970484,,1:2+2:2,6138c06a4253be55e35333ba,,,condition_2,26,0,2023.1.3,2023-10-01_12h38.21.867,,2,Win32,,0.5172000000002299,,26,,1,,,27,001
﻿study_1_pilot,27,condition_2,,2,agent_2,5.29,0.7,613701,2023-10-01_12h38.32.445,,65194c18ca95cdf1e8a6f56b,agent_1,study_1,5.29,59.995200383970484,,1:2+2:2,6138c06a4253be55e35333ba,,,condition_2,27,0,2023.1.3,2023-10-01_12h38.21.867,,2,Win32,,0.5168999999994526,,27,,1,,,28,001
﻿study_1_pilot,28,condition_2,,1,agent_2,5.46,4.16,613701,2023-10-01_12h38.32.445,,65194c18ca95cdf1e8a6f56b,agent_1,study_1,4.16,59.995200383970484,,1:2+2:2,6138c06a4253be55e35333ba,,,condition_2,28,0,2023.1.3,2023-10-01_12h38.21.867,,1,Win32,,1.2502000000001772,,28,,1,,,29,001
﻿study_1_pilot,29,condition_2,,2,agent_2,6.18,2.3,613701,2023-10-01_12h38.32.445,,65194c18ca95cdf1e8a6f56b,agent_1,study_1,6.18,59.995200383970484,,1:2+2:2,6138c06a4253be55e35333ba,,,condition_2,29,0,2023.1.3,2023-10-01_12h38.21.867,,2,Win32,,0.4406999999992536,,29,,1,,,30,001
﻿study_1_pilot,30,condition_2,,2,agent_2,3.59,1.43,613701,2023-10-01_12h38.32.445,,65194c18ca95cdf1e8a6f56b,agent_1,study_1,3.59,59.995200383970484,,1:2+2:2,6138c06a4253be55e35333ba,,,condition_2,30,0,2023.1.3,2023-10-01_12h38.21.867,,2,Win32,,0.31799999999998363,,30,,1,,,31,001
﻿study_1_pilot,31,condition_2,,1,agent_2,4.38,3.52,613701,2023-10-01_12h38.32.445,,65194c18ca95cdf1e8a6f56b,agent_1,study_1,3.52,59.995200383970484,,1:2+2:2,6138c06a4253be55e35333ba,,,condition_2,31,0,2023.1.3,2023-10-01_12h38.21.867,,1,Win32,,0.4074000000003366,,31,,1,,,32,001
﻿study_1_pilot,32,condition_2,,2,agent_2,4.34,1.94,613701,2023-10-01_12h38.32.445,,65194c18ca95cdf1e8a6f56b,agent_1,study_1,4.34,59.995200383970484,,1:2+2:2,6138c06a4253be55e35333ba,,,condition_2,32,0,2023.1.3,2023-10-01_12h38.21.867,,2,Win32,,0.26960000000053697,,32,,1,,,33,001
﻿study_1_pilot,33,condition_2,,2,agent_2,5.71,3.05,613701,2023-10-01_12h38.32.445,,65194c18ca95cdf1e8a6f56b,agent_1,study_1,5.71,59.995200383970484,,1:2+2:2,6138c06a4253be55e35333ba,,,condition_2,33,0,2023.1.3,2023-10-01_12h38.21.867,,2,Win32,,0.25010000000054333,,33,,1,,,34,001
﻿study_1_pilot,34,condition_2,,2,agent_2,3.37,3.85,613701,2023-10-01_12h38.32.445,,65194c18ca95cdf1e8a6f56b,agent_1,study_1,3.37,59.995200383970484,,1:2+2:2,6138c06a4253be55e35333ba,,,condition_2,34,0,2023.1.3,2023-10-01_12h38.21.867,,2,Win32,,0.2613000000007446,,34,,1,,,35,001
﻿study_1_pilot,35,condition_2,,2,agent_2,4.55,3.43,613701,2023-10-01_12h38.32.445,,65194c18ca95cdf1e8a6f56b,agent_1,study_1,4.55,59.995200383970484,,1:2+2:2,6138c06a4253be55e35333ba,,,condition_2,35,0,2023.1.3,2023-10-01_12h38.21.867,,2,Win32,,0.305499999999995,,35,,1,,,36,001
﻿study_1_pilot,36,condition_2,,2,agent_2,6.12,3.52,613701,2023-10-01_12h38.32.445,,65194c18ca95cdf1e8a6f56b,agent_1,study_1,6.12,59.995200383970484,,1:2+2:2,6138c06a4253be55e35333ba,,,condition_2,36,0,2023.1.3,2023-10-01_12h38.21.867,,2,Win32,,0.3003999999994562,,36,,1,,,37,001
﻿study_1_pilot,37,condition_2,,2,agent_2,5.19,2.75,613701,2023-10-01_12h38.32.445,,65194c18ca95cdf1e8a6f56b,agent_1,study_1,5.19,59.995200383970484,,1:2+2:2,6138c06a4253be55e35333ba,,,condition_2,37,0,2023.1.3,2023-10-01_12h38.21.867,,2,Win32,,0.37400000000002365,,37,,1,,,38,001
﻿study_1_pilot,38,condition_2,,2,agent_2,4.64,2.5,613701,2023-10-01_12h38.32.445,,65194c18ca95cdf1e8a6f56b,agent_1,study_1,4.64,59.995200383970484,,1:2+2:2,6138c06a4253be55e35333ba,,,condition_2,38,0,2023.1.3,2023-10-01_12h38.21.867,,2,Win32,,0.2852000000002022,,38,,1,,,39,001
﻿study_1_pilot,39,condition_2,,2,agent_2,5.25,4.26,613701,2023-10-01_12h38.32.445,,65194c18ca95cdf1e8a6f56b,agent_1,study_1,5.25,59.995200383970484,,1:2+2:2,6138c06a4253be55e35333ba,,,condition_2,39,0,2023.1.3,2023-10-01_12h38.21.867,,2,Win32,,0.47199999999998,,39,,1,,,40,001
﻿study_1_pilot,40,condition_2,,2,agent_2,5.36,3.56,613701,2023-10-01_12h38.32.445,,65194c18ca95cdf1e8a6f56b,agent_1,study_1,5.36,59.995200383970484,,1:2+2:2,6138c06a4253be55e35333ba,,,condition_2,40,0,2023.1.3,2023-10-01_12h38.21.867,,2,Win32,,0.31670000000019627,,40,,1,,,41,001
﻿study_1_pilot,41,condition_2,,2,agent_2,5.02,2.66,613701,2023-10-01_12h38.32.445,,65194c18ca95cdf1e8a6f56b,agent_1,study_1,5.02,59.995200383970484,,1:2+2:2,6138c06a4253be55e35333ba,,,condition_2,41,0,2023.1.3,2023-10-01_12h38.21.867,,2,Win32,,0.30909999999965976,,41,,1,,,42,001
﻿study_1_pilot,42,condition_2,,2,agent_2,4.76,3.72,613701,2023-10-01_12h38.32.445,,65194c18ca95cdf1e8a6f56b,agent_1,study_1,4.76,59.995200383970484,,1:2+2:2,6138c06a4253be55e35333ba,,,condition_2,42,0,2023.1.3,2023-10-01_12h38.21.867,,2,Win32,,0.33529999999979054,,42,,1,,,43,001
﻿study_1_pilot,43,condition_2,,2,agent_2,4.61,3.86,613701,2023-10-01_12h38.32.445,,65194c18ca95cdf1e8a6f56b,agent_1,study_1,4.61,59.995200383970484,,1:2+2:2,6138c06a4253be55e35333ba,,,condition_2,43,0,2023.1.3,2023-10-01_12h38.21.867,,2,Win32,,0.30000000000001137,,43,,1,,,44,001
﻿study_1_pilot,44,condition_1,,2,agent_2,2.65,3.16,613701,2023-10-01_12h38.32.445,,65194c18ca95cdf1e8a6f56b,agent_1,study_1,2.65,59.995200383970484,,1:1+2:1,6138c06a4253be55e35333ba,,,condition_1,44,0,2023.1.3,2023-10-01_12h38.21.867,,2,Win32,,0.3175999999996293,,44,,1,,,45,001
﻿study_1_pilot,45,condition_1,,1,agent_2,3.38,2.5,613701,2023-10-01_12h38.32.445,,65194c18ca95cdf1e8a6f56b,agent_1,study_1,2.5,59.995200383970484,,1:1+2:1,6138c06a4253be55e35333ba,,,condition_1,45,0,2023.1.3,2023-10-01_12h38.21.867,,1,Win32,,0.2672999999998069,,45,,1,,,46,001
﻿study_1_pilot,46,condition_1,,2,agent_2,3.26,2.03,613701,2023-10-01_12h38.32.445,,65194c18ca95cdf1e8a6f56b,agent_1,study_1,3.26,59.995200383970484,,1:1+2:1,6138c06a4253be55e35333ba,,,condition_1,46,0,2023.1.3,2023-10-01_12h38.21.867,,2,Win32,,0.31049999999999045,,46,,1,,,47,001
﻿study_1_pilot,47,condition_1,,1,agent_2,3.96,2.89,613701,2023-10-01_12h38.32.445,,65194c18ca95cdf1e8a6f56b,agent_1,study_1,2.89,59.995200383970484,,1:1+2:1,6138c06a4253be55e35333ba,,,condition_1,47,0,2023.1.3,2023-10-01_12h38.21.867,,1,Win32,,0.17670000000015307,,47,,1,,,48,001
﻿study_1_pilot,48,condition_1,,2,agent_2,2.51,4.09,613701,2023-10-01_12h38.32.445,,65194c18ca95cdf1e8a6f56b,agent_1,study_1,2.51,59.995200383970484,,1:1+2:1,6138c06a4253be55e35333ba,,,condition_1,48,0,2023.1.3,2023-10-01_12h38.21.867,,2,Win32,,0.20839999999941483,,48,,1,,,49,001
﻿study_1_pilot,49,condition_1,,2,agent_2,3.08,1.79,613701,2023-10-01_12h38.32.445,,65194c18ca95cdf1e8a6f56b,agent_1,study_1,3.08,59.995200383970484,,1:1+2:1,6138c06a4253be55e35333ba,,,condition_1,49,0,2023.1.3,2023-10-01_12h38.21.867,,2,Win32,,0.2062999999998283,,49,,1,,,50,001
﻿study_1_pilot,50,condition_1,,2,agent_2,2.84,1.23,613701,2023-10-01_12h38.32.445,,65194c18ca95cdf1e8a6f56b,agent_1,study_1,2.84,59.995200383970484,,1:1+2:1,6138c06a4253be55e35333ba,,,condition_1,50,0,2023.1.3,2023-10-01_12h38.21.867,,2,Win32,,0.3173999999993953,,50,,1,,,51,001
﻿study_1_pilot,51,condition_1,,2,agent_2,4.27,2.51,613701,2023-10-01_12h38.32.445,,65194c18ca95cdf1e8a6f56b,agent_1,study_1,4.27,59.995200383970484,,1:1+2:1,6138c06a4253be55e35333ba,,,condition_1,51,0,2023.1.3,2023-10-01_12h38.21.867,,2,Win32,,0.486599999999612,,51,,1,,,52,001
﻿study_1_pilot,,,,,,,,613701,2023-10-01_12h38.32.445,,65194c18ca95cdf1e8a6f56b,,study_1,,59.995200383970484,,,6138c06a4253be55e35333ba,,,,,,2023.1.3,2023-10-01_12h38.21.867,,,Win32,,,,,,,,,,001
﻿study_1_pilot,,,,,,,,081052,2023-10-01_12h37.53.741,,65194bf3855e8baf0247e681,,study_1,,166.66666666666666,,,60fd6968ca3c5db3ab68c13b,,side_flip,,,,2023.1.3,2023-10-01_12h37.48.662,,,Win32,,,,,,,,,,001
﻿study_1_pilot,,,,,,,,081052,2023-10-01_12h37.53.741,,65194bf3855e8baf0247e681,,study_1,,166.66666666666666,,,60fd6968ca3c5db3ab68c13b,,,,,,2023.1.3,2023-10-01_12h37.48.662,,,Win32,,,,,,,,,,001
﻿study_1_pilot,,,,,,,,081052,2023-10-01_12h37.53.741,,65194bf3855e8baf0247e681,,study_1,,166.66666666666666,,,60fd6968ca3c5db3ab68c13b,,,,,,2023.1.3,2023-10-01_12h37.48.662,,,Win32,,,,,,,,,,001
﻿study_1_pilot,,,,,,,,081052,2023-10-01_12h37.53.741,,65194bf3855e8baf0247e681,,study_1,,166.66666666666666,,,60fd6968ca3c5db3ab68c13b,,,,,,2023.1.3,2023-10-01_12h37.48.662,,,Win32,,,,,,,,,,001
﻿study_1_pilot,,,,,,,,081052,2023-10-01_12h37.53.741,,65194bf3855e8baf0247e681,,study_1,,166.66666666666666,,,60fd6968ca3c5db3ab68c13b,,,,,,2023.1.3,2023-10-01_12h37.48.662,,,Win32,,,,,,,,,,001
﻿study_1_pilot,,,,,,,,081052,2023-10-01_12h37.53.741,,65194bf3855e8baf0247e681,,study_1,,166.66666666666666,,,60fd6968ca3c5db3ab68c13b,,,,,,2023.1.3,2023-10-01_12h37.48.662,,,Win32,,,,,,,,,,001
﻿study_1_pilot,,,,,,,,081052,2023-10-01_12h37.53.741,,65194bf3855e8baf0247e681,,study_1,,166.66666666666666,,,60fd6968ca3c5db3ab68c13b,,,,,,2023.1.3,2023-10-01_12h37.48.662,,,Win32,,,,,,,,,,001
﻿study_1_pilot,,,,,,,,081052,2023-10-01_12h37.53.741,,65194bf3855e8baf0247e681,,study_1,,166.66666666666666,,,60fd6968ca3c5db3ab68c13b,,,,,,2023.1.3,2023-10-01_12h37.48.662,,,Win32,,,,,,,,,,001
﻿study_1_pilot,,,,,,,,081052,2023-10-01_12h37.53.741,,65194bf3855e8baf0247e681,,study_1,,166.66666666666666,,,60fd6968ca3c5db3ab68c13b,,,,,,2023.1.3,2023-10-01_12h37.48.662,,,Win32,,,,,,,,,,001
﻿study_1_pilot,,,,,,,,081052,2023-10-01_12h37.53.741,,65194bf3855e8baf0247e681,,study_1,,166.66666666666666,,,60fd6968ca3c5db3ab68c13b,,,,,,2023.1.3,2023-10-01_12h37.48.662,,,Win32,,,,,,,,,,001
﻿study_1_pilot,,,,,,,,081052,2023-10-01_12h37.53.741,,65194bf3855e8baf0247e681,,study_1,,166.66666666666666,,,60fd6968ca3c5db3ab68c13b,,,,,,2023.1.3,2023-10-01_12h37.48.662,,,Win32,,,,,,,,,,001
﻿study_1_pilot,,,,,,,,081052,2023-10-01_12h37.53.741,,65194bf3855e8baf0247e681,,study_1,,166.66666666666666,,,60fd6968ca3c5db3ab68c13b,,,,,,2023.1.3,2023-10-01_12h37.48.662,,,Win32,,,,,,,,,,001
﻿study_1_pilot,,,,,,,,081052,2023-10-01_12h37.53.741,,65194bf3855e8baf0247e681,,study_1,,166.66666666666666,,,60fd6968ca3c5db3ab68c13b,,,,,,2023.1.3,2023-10-01_12h37.48.662,,,Win32,,,,,,,,,,001
﻿study_1_pilot,,,,,,,,081052,2023-10-01_12h37.53.741,,65194bf3855e8baf0247e681,,study_1,,166.66666666666666,,,60fd6968ca3c5db3ab68c13b,,,,,,2023.1.3,2023-10-01_12h37.48.662,,,Win32,,,,,,,,,,001
﻿study_1_pilot,,,,,,,,081052,2023-10-01_12h37.53.741,,65194bf3855e8baf0247e681,,study_1,,166.66666666666666,,,60fd6968ca3c5db3ab68c13b,,,,,,2023.1.3,2023-10-01_12h37.48.662,,,Win32,,,,,,,,,,001
﻿study_1_pilot,,,,,,,,081052,2023-10-01_12h37.53.741,,65194bf3855e8baf0247e681,,study_1,,166.66666666666666,,,60fd6968ca3c5db3ab68c13b,,,,,,2023.1.3,2023-10-01_12h37.48.662,,,Win32,,,,,,,,,,001
﻿study_1_pilot,,,,,,,,081052,2023-10-01_12h37.53.741,,65194bf3855e8baf0247e681,,study_1,,166.66666666666666,,,60fd6968ca3c5db3ab68c13b,,,,,,2023.1.3,2023-10-01_12h37.48.662,,,Win32,,,,,,,,,,001
﻿study_1_pilot,,,,,,,,081052,2023-10-01_12h37.53.741,,65194bf3855e8baf0247e681,,study_1,,166.66666666666666,,,60fd6968ca3c5db3ab68c13b,,,,,,2023.1.3,2023-10-01_12h37.48.662,,,Win32,,,,,,,,,,001
﻿study_1_pilot,,,,,,,,081052,2023-10-01_12h37.53.741,,65194bf3855e8baf0247e681,,study_1,,166.66666666666666,,,60fd6968ca3c5db3ab68c13b,,,,,,2023.1.3,2023-10-01_12h37.48.662,,,Win32,,,,,,,,,,001
﻿study_1_pilot,,,,,,,,081052,2023-10-01_12h37.53.741,,65194bf3855e8baf0247e681,,study_1,,166.66666666666666,,,60fd6968ca3c5db3ab68c13b,,,,,,2023.1.3,2023-10-01_12h37.48.662,,,Win32,,,,,,,,,,001
﻿study_1_pilot,,,,,,,,081052,2023-10-01_12h37.53.741,,65194bf3855e8baf0247e681,,study_1,,166.66666666666666,,,60fd6968ca3c5db3ab68c13b,,,,,,2023.1.3,2023-10-01_12h37.48.662,,,Win32,,,,,,,,,,001
﻿study_1_pilot,,,,,,,,081052,2023-10-01_12h37.53.741,,65194bf3855e8baf0247e681,,study_1,,166.66666666666666,,,60fd6968ca3c5db3ab68c13b,,,,,,2023.1.3,2023-10-01_12h37.48.662,,,Win32,,,,,,,,,,001
﻿study_1_pilot,,,8.975000000000023,,,,,081052,2023-10-01_12h37.53.741,,65194bf3855e8baf0247e681,,study_1,,166.66666666666666,,,60fd6968ca3c5db3ab68c13b,1,,,,,2023.1.3,2023-10-01_12h37.48.662,,,Win32,,,,,,,,,,001
﻿study_1_pilot,,,,,,,,081052,2023-10-01_12h37.53.741,,65194bf3855e8baf0247e681,,study_1,,166.66666666666666,15.984000000000009,,60fd6968ca3c5db3ab68c13b,,,,,,2023.1.3,2023-10-01_12h37.48.662,,,Win32,,,,,,,,space,,001
﻿study_1_pilot,,,,,,,,081052,2023-10-01_12h37.53.741,space,65194bf3855e8baf0247e681,,study_1,,166.66666666666666,,,60fd6968ca3c5db3ab68c13b,,,,,,2023.1.3,2023-10-01_12h37.48.662,,,Win32,,,,,,,5.046999999999997,,,001
﻿study_1_pilot,,,,,,,,081052,2023-10-01_12h37.53.741,,65194bf3855e8baf0247e681,,study_1,,166.66666666666666,,,60fd6968ca3c5db3ab68c13b,,,,,,2023.1.3,2023-10-01_12h37.48.662,2,,Win32,,,,,7.535000000000053,,,,,001
﻿study_1_pilot,,,,,,,,081052,2023-10-01_12h37.53.741,,65194bf3855e8baf0247e681,,study_1,,166.66666666666666,,,60fd6968ca3c5db3ab68c13b,,,,,,2023.1.3,2023-10-01_12h37.48.662,,,Win32,,,2,,,,,,,001
﻿study_1_pilot,,,,,,,,081052,2023-10-01_12h37.53.741,,65194bf3855e8baf0247e681,,study_1,,166.66666666666666,,,60fd6968ca3c5db3ab68c13b,,,,,,2023.1.3,2023-10-01_12h37.48.662,,,Win32,,,,,,,,,,001
﻿study_1_pilot,0,condition_2,,2,agent_2,4.28,3.32,081052,2023-10-01_12h37.53.741,,65194bf3855e8baf0247e681,agent_1,study_1,4.28,166.66666666666666,,1:2+2:2,60fd6968ca3c5db3ab68c13b,,,condition_2,0,0,2023.1.3,2023-10-01_12h37.48.662,,2,Win32,,1.8149999999999977,,0,,1,,,1,001
﻿study_1_pilot,1,condition_2,,2,agent_2,6.54,4.46,081052,2023-10-01_12h37.53.741,,65194bf3855e8baf0247e681,agent_1,study_1,6.54,166.66666666666666,,1:2+2:2,60fd6968ca3c5db3ab68c13b,,,condition_2,1,0,2023.1.3,2023-10-01_12h37.48.662,,2,Win32,,1.7139999999999986,,1,,1,,,2,001
﻿study_1_pilot,2,condition_2,,2,agent_2,5.85,4.54,081052,2023-10-01_12h37.53.741,,65194bf3855e8baf0247e681,agent_1,study_1,5.85,166.66666666666666,,1:2+2:2,60fd6968ca3c5db3ab68c13b,,,condition_2,2,0,2023.1.3,2023-10-01_12h37.48.662,,2,Win32,,1.4370000000000118,,2,,1,,,3,001
﻿study_1_pilot,3,condition_2,,2,agent_2,5.8,2.66,081052,2023-10-01_12h37.53.741,,65194bf3855e8baf0247e681,agent_1,study_1,5.8,166.66666666666666,,1:2+2:2,60fd6968ca3c5db3ab68c13b,,,condition_2,3,0,2023.1.3,2023-10-01_12h37.48.662,,2,Win32,,0.714999999999975,,3,,1,,,4,001
﻿study_1_pilot,4,condition_2,,1,agent_2,4.66,1.92,081052,2023-10-01_12h37.53.741,,65194bf3855e8baf0247e681,agent_1,study_1,1.92,166.66666666666666,,1:2+2:2,60fd6968ca3c5db3ab68c13b,,,condition_2,4,0,2023.1.3,2023-10-01_12h37.48.662,,1,Win32,,0.25399999999996226,,4,,1,,,5,001
﻿study_1_pilot,5,condition_2,,2,agent_2,5.1,1.51,081052,2023-10-01_12h37.53.741,,65194bf3855e8baf0247e681,agent_1,study_1,5.1,166.66666666666666,,1:2+2:2,60fd6968ca3c5db3ab68c13b,,,condition_2,5,0,2023.1.3,2023-10-01_12h37.48.662,,2,Win32,,0.3450000000000273,,5,,1,,,6,001
﻿study_1_pilot,6,condition_2,,1,agent_2,5.15,2.75,081052,2023-10-01_12h37.53.741,,65194bf3855e8baf0247e681,agent_1,study_1,2.75,166.66666666666666,,1:2+2:2,60fd6968ca3c5db3ab68c13b,,,condition_2,6,0,2023.1.3,2023-10-01_12h37.48.662,,1,Win32,,0.2969999999999686,,6,,1,,,7,001
﻿study_1_pilot,7,condition_2,,2,agent_2,2.54,2.88,081052,2023-10-01_12h37.53.741,,65194bf3855e8baf0247e681,agent_1,study_1,2.54,166.66666666666666,,1:2+2:2,60fd6968ca3c5db3ab68c13b,,,condition_2,7,0,2023.1.3,2023-10-01_12h37.48.662,,2,Win32,,0.2189999999999941,,7,,1,,,8,001
﻿study_1_pilot,8,condition_2,,1,agent_2,4.66,2.35,081052,2023-10-01_12h37.53.741,,65194bf3855e8baf0247e681,agent_1,study_1,2.35,166.66666666666666,,1:2+2:2,60fd6968ca3c5db3ab68c13b,,,condition_2,8,0,2023.1.3,2023-10-01_12h37.48.662,,1,Win32,,0.40200000000004366,,8,,1,,,9,001
﻿study_1_pilot,9,condition_2,,2,agent_2,3.69,3.31,081052,2023-10-01_12h37.53.741,,65194bf3855e8baf0247e681,agent_1,study_1,3.69,166.66666666666666,,1:2+2:2,60fd6968ca3c5db3ab68c13b,,,condition_2,9,0,2023.1.3,2023-10-01_12h37.48.662,,2,Win32,,0.299000000000035,,9,,1,,,10,001
﻿study_1_pilot,10,condition_2,,1,agent_2,3.09,3.12,081052,2023-10-01_12h37.53.741,,65194bf3855e8baf0247e681,agent_1,study_1,3.12,166.66666666666666,,1:2+2:2,60fd6968ca3c5db3ab68c13b,,,condition_2,10,0,2023.1.3,2023-10-01_12h37.48.662,,1,Win32,,1.211999999999989,,10,,1,,,11,001
﻿study_1_pilot,11,condition_2,,2,agent_2,5.58,2.16,081052,2023-10-01_12h37.53.741,,65194bf3855e8baf0247e681,agent_1,study_1,5.58,166.66666666666666,,1:2+2:2,60fd6968ca3c5db3ab68c13b,,,condition_2,11,0,2023.1.3,2023-10-01_12h37.48.662,,2,Win32,,0.2650000000000432,,11,,1,,,12,001
﻿study_1_pilot,12,condition_2,,2,agent_2,3.28,3.6,081052,2023-10-01_12h37.53.741,,65194bf3855e8baf0247e681,agent_1,study_1,3.28,166.66666666666666,,1:2+2:2,60fd6968ca3c5db3ab68c13b,,,condition_2,12,0,2023.1.3,2023-10-01_12h37.48.662,,2,Win32,,0.5660000000000309,,12,,1,,,13,001
﻿study_1_pilot,13,condition_2,,1,agent_2,4.6,2.75,081052,2023-10-01_12h37.53.741,,65194bf3855e8baf0247e681,agent_1,study_1,2.75,166.66666666666666,,1:2+2:2,60fd6968ca3c5db3ab68c13b,,,condition_2,13,0,2023.1.3,2023-10-01_12h37.48.662,,1,Win32,,0.22699999999997544,,13,,1,,,14,001
﻿study_1_pilot,14,condition_2,,2,agent_2,3.42,2.82,081052,2023-10-01_12h37.53.741,,65194bf3855e8baf0247e681,agent_1,study_1,3.42,166.66666666666666,,1:2+2:2,60fd6968ca3c5db3ab68c13b,,,condition_2,14,0,2023.1.3,2023-10-01_12h37.48.662,,2,Win32,,0.23099999999999454,,14,,1,,,15,001
﻿study_1_pilot,15,condition_2,,1,agent_2,6.84,3.02,081052,2023-10-01_12h37.53.741,,65194bf3855e8baf0247e681,agent_1,study_1,3.02,166.66666666666666,,1:2+2:2,60fd6968ca3c5db3ab68c13b,,,condition_2,15,0,2023.1.3,2023-10-01_12h37.48.662,,1,Win32,,0.26900000000000546,,15,,1,,,16,001
﻿study_1_pilot,16,condition_2,,2,agent_2,5.98,2.52,081052,2023-10-01_12h37.53.741,,65194bf3855e8baf0247e681,agent_1,study_1,5.98,166.66666666666666,,1:2+2:2,60fd6968ca3c5db3ab68c13b,,,condition_2,16,0,2023.1.3,2023-10-01_12h37.48.662,,2,Win32,,0.22100000000000364,,16,,1,,,17,001
﻿study_1_pilot,17,condition_2,,2,agent_2,4.67,2.26,081052,2023-10-01_12h37.53.741,,65194bf3855e8baf0247e681,agent_1,study_1,4.67,166.66666666666666,,1:2+2:2,60fd6968ca3c5db3ab68c13b,,,condition_2,17,0,2023.1.3,2023-10-01_12h37.48.662,,2,Win32,,0.3159999999999741,,17,,1,,,18,001
﻿study_1_pilot,18,condition_2,,1,agent_2,6.19,4.3,081052,2023-10-01_12h37.53.741,,65194bf3855e8baf0247e681,agent_1,study_1,4.3,166.66666666666666,,1:2+2:2,60fd6968ca3c5db3ab68c13b,,,condition_2,18,0,2023.1.3,2023-10-01_12h37.48.662,,1,Win32,,0.242999999999995,,18,,1,,,19,001
﻿study_1_pilot,19,condition_2,,2,agent_2,4.67,3.56,081052,2023-10-01_12h37.53.741,,65194bf3855e8baf0247e681,agent_1,study_1,4.67,166.66666666666666,,1:2+2:2,60fd6968ca3c5db3ab68c13b,,,condition_2,19,0,2023.1.3,2023-10-01_12h37.48.662,,2,Win32,,0.40999999999996817,,19,,1,,,20,001
﻿study_1_pilot,20,condition_2,,1,agent_2,5.17,1.19,081052,2023-10-01_12h37.53.741,,65194bf3855e8baf0247e681,agent_1,study_1,1.19,166.66666666666666,,1:2+2:2,60fd6968ca3c5db3ab68c13b,,,condition_2,20,0,2023.1.3,2023-10-01_12h37.48.662,,1,Win32,,0.22199999999998,,20,,1,,,21,001
﻿study_1_pilot,21,condition_2,,2,agent_2,4.57,3.44,081052,2023-10-01_12h37.53.741,,65194bf3855e8baf0247e681,agent_1,study_1,4.57,166.66666666666666,,1:2+2:2,60fd6968ca3c5db3ab68c13b,,,condition_2,21,0,2023.1.3,2023-10-01_12h37.48.662,,2,Win32,,0.08499999999997954,,21,,1,,,22,001
﻿study_1_pilot,22,condition_2,,2,agent_2,6.97,1.56,081052,2023-10-01_12h37.53.741,,65194bf3855e8baf0247e681,agent_1,study_1,6.97,166.66666666666666,,1:2+2:2,60fd6968ca3c5db3ab68c13b,,,condition_2,22,0,2023.1.3,2023-10-01_12h37.48.662,,2,Win32,,0.3529999999999518,,22,,1,,,23,001
﻿study_1_pilot,23,condition_2,,1,agent_2,5.56,3.95,081052,2023-10-01_12h37.53.741,,65194bf3855e8baf0247e681,agent_1,study_1,3.95,166.66666666666666,,1:2+2:2,60fd6968ca3c5db3ab68c13b,,,condition_2,23,0,2023.1.3,2023-10-01_12h37.48.662,,1,Win32,,0.027000000000043656,,23,,1,,,24,001
﻿study_1_pilot,24,condition_2,,2,agent_2,4.36,2.28,081052,2023-10-01_12h37.53.741,,65194bf3855e8baf0247e681,agent_1,study_1,4.36,166.66666666666666,,1:2+2:2,60fd6968ca3c5db3ab68c13b,,,condition_2,24,0,2023.1.3,2023-10-01_12h37.48.662,,2,Win32,,0.10099999999999909,,24,,1,,,25,001
﻿study_1_pilot,25,condition_2,,1,agent_2,4.95,3.05,081052,2023-10-01_12h37.53.741,,65194bf3855e8baf0247e681,agent_1,study_1,3.05,166.66666666666666,,1:2+2:2,60fd6968ca3c5db3ab68c13b,,,condition_2,25,0,2023.1.3,2023-10-01_12h37.48.662,,1,Win32,,0.07800000000003138,,25,,1,,,26,001
﻿study_1_pilot,26,condition_2,,2,agent_2,6.13,1.44,081052,2023-10-01_12h37.53.741,,65194bf3855e8baf0247e681,agent_1,study_1,6.13,166.66666666666666,,1:2+2:2,60fd6968ca3c5db3ab68c13b,,,condition_2,26,0,2023.1.3,2023-10-01_12h37.48.662,,2,Win32,,0.35000000000002274,,26,,1,,,27,001
﻿study_1_pilot,27,condition_2,,1,agent_2,5.29,0.7,081052,2023-10-01_12h37.53.741,,65194bf3855e8baf0247e681,agent_1,study_1,0.7,166.66666666666666,,1:2+2:2,60fd6968ca3c5db3ab68c13b,,,condition_2,27,0,2023.1.3,2023-10-01_12h37.48.662,,1,Win32,,0.45400000000000773,,27,,1,,,28,001
﻿study_1_pilot,28,condition_2,,2,agent_2,5.46,4.16,081052,2023-10-01_12h37.53.741,,65194bf3855e8baf0247e681,agent_1,study_1,5.46,166.66666666666666,,1:2+2:2,60fd6968ca3c5db3ab68c13b,,,condition_2,28,0,2023.1.3,2023-10-01_12h37.48.662,,2,Win32,,0.35700000000002774,,28,,1,,,29,001
﻿study_1_pilot,29,condition_2,,2,agent_2,6.18,2.3,081052,2023-10-01_12h37.53.741,,65194bf3855e8baf0247e681,agent_1,study_1,6.18,166.66666666666666,,1:2+2:2,60fd6968ca3c5db3ab68c13b,,,condition_2,29,0,2023.1.3,2023-10-01_12h37.48.662,,2,Win32,,0.6599999999999682,,29,,1,,,30,001
﻿study_1_pilot,30,condition_2,,2,agent_2,3.59,1.43,081052,2023-10-01_12h37.53.741,,65194bf3855e8baf0247e681,agent_1,study_1,3.59,166.66666666666666,,1:2+2:2,60fd6968ca3c5db3ab68c13b,,,condition_2,30,0,2023.1.3,2023-10-01_12h37.48.662,,2,Win32,,0.5819999999999936,,30,,1,,,31,001
﻿study_1_pilot,31,condition_2,,1,agent_2,4.38,3.52,081052,2023-10-01_12h37.53.741,,65194bf3855e8baf0247e681,agent_1,study_1,3.52,166.66666666666666,,1:2+2:2,60fd6968ca3c5db3ab68c13b,,,condition_2,31,0,2023.1.3,2023-10-01_12h37.48.662,,1,Win32,,0.09000000000003183,,31,,1,,,32,001
﻿study_1_pilot,32,condition_2,,2,agent_2,4.34,1.94,081052,2023-10-01_12h37.53.741,,65194bf3855e8baf0247e681,agent_1,study_1,4.34,166.66666666666666,,1:2+2:2,60fd6968ca3c5db3ab68c13b,,,condition_2,32,0,2023.1.3,2023-10-01_12h37.48.662,,2,Win32,,0.23099999999999454,,32,,1,,,33,001
﻿study_1_pilot,33,condition_2,,1,agent_2,5.71,3.05,081052,2023-10-01_12h37.53.741,,65194bf3855e8baf0247e681,agent_1,study_1,3.05,166.66666666666666,,1:2+2:2,60fd6968ca3c5db3ab68c13b,,,condition_2,33,0,2023.1.3,2023-10-01_12h37.48.662,,1,Win32,,0.353999999999985,,33,,1,,,34,001
﻿study_1_pilot,34,condition_2,,2,agent_2,3.37,3.85,081052,2023-10-01_12h37.53.741,,65194bf3855e8baf0247e681,agent_1,study_1,3.37,166.66666666666666,,1:2+2:2,60fd6968ca3c5db3ab68c13b,,,condition_2,34,0,2023.1.3,2023-10-01_12h37.48.662,,2,Win32,,0.19700000000000273,,34,,1,,,35,001
﻿study_1_pilot,35,condition_2,,1,agent_2,4.55,3.43,081052,2023-10-01_12h37.53.741,,65194bf3855e8baf0247e681,agent_1,study_1,3.43,166.66666666666666,,1:2+2:2,60fd6968ca3c5db3ab68c13b,,,condition_2,35,0,2023.1.3,2023-10-01_12h37.48.662,,1,Win32,,0.21900000000005093,,35,,1,,,36,001
﻿study_1_pilot,36,condition_2,,2,agent_2,6.12,3.52,081052,2023-10-01_12h37.53.741,,65194bf3855e8baf0247e681,agent_1,study_1,6.12,166.66666666666666,,1:2+2:2,60fd6968ca3c5db3ab68c13b,,,condition_2,36,0,2023.1.3,2023-10-01_12h37.48.662,,2,Win32,,0.019000000000005457,,36,,1,,,37,001
﻿study_1_pilot,37,condition_2,,1,agent_2,5.19,2.75,081052,2023-10-01_12h37.53.741,,65194bf3855e8baf0247e681,agent_1,study_1,2.75,166.66666666666666,,1:2+2:2,60fd6968ca3c5db3ab68c13b,,,condition_2,37,0,2023.1.3,2023-10-01_12h37.48.662,,1,Win32,,0.12999999999999545,,37,,1,,,38,001
﻿study_1_pilot,38,condition_2,,2,agent_2,4.64,2.5,081052,2023-10-01_12h37.53.741,,65194bf3855e8baf0247e681,agent_1,study_1,4.64,166.66666666666666,,1:2+2:2,60fd6968ca3c5db3ab68c13b,,,condition_2,38,0,2023.1.3,2023-10-01_12h37.48.662,,2,Win32,,0.09100000000000819,,38,,1,,,39,001
﻿study_1_pilot,39,condition_2,,1,agent_2,5.25,4.26,081052,2023-10-01_12h37.53.741,,65194bf3855e8baf0247e681,agent_1,study_1,4.26,166.66666666666666,,1:2+2:2,60fd6968ca3c5db3ab68c13b,,,condition_2,39,0,2023.1.3,2023-10-01_12h37.48.662,,1,Win32,,0.3299999999999841,,39,,1,,,40,001
﻿study_1_pilot,40,condition_2,,2,agent_2,5.36,3.56,081052,2023-10-01_12h37.53.741,,65194bf3855e8baf0247e681,agent_1,study_1,5.36,166.66666666666666,,1:2+2:2,60fd6968ca3c5db3ab68c13b,,,condition_2,40,0,2023.1.3,2023-10-01_12h37.48.662,,2,Win32,,0.12400000000002365,,40,,1,,,41,001
﻿study_1_pilot,41,condition_2,,1,agent_2,5.02,2.66,081052,2023-10-01_12h37.53.741,,65194bf3855e8baf0247e681,agent_1,study_1,2.66,166.66666666666666,,1:2+2:2,60fd6968ca3c5db3ab68c13b,,,condition_2,41,0,2023.1.3,2023-10-01_12h37.48.662,,1,Win32,,0.26900000000000546,,41,,1,,,42,001
﻿study_1_pilot,42,condition_2,,2,agent_2,4.76,3.72,081052,2023-10-01_12h37.53.741,,65194bf3855e8baf0247e681,agent_1,study_1,4.76,166.66666666666666,,1:2+2:2,60fd6968ca3c5db3ab68c13b,,,condition_2,42,0,2023.1.3,2023-10-01_12h37.48.662,,2,Win32,,0.2039999999999509,,42,,1,,,43,001
﻿study_1_pilot,43,condition_2,,2,agent_2,4.61,3.86,081052,2023-10-01_12h37.53.741,,65194bf3855e8baf0247e681,agent_1,study_1,4.61,166.66666666666666,,1:2+2:2,60fd6968ca3c5db3ab68c13b,,,condition_2,43,0,2023.1.3,2023-10-01_12h37.48.662,,2,Win32,,0.5809999999999604,,43,,1,,,44,001
﻿study_1_pilot,44,condition_1,,1,agent_2,2.65,3.16,081052,2023-10-01_12h37.53.741,,65194bf3855e8baf0247e681,agent_1,study_1,3.16,166.66666666666666,,1:1+2:1,60fd6968ca3c5db3ab68c13b,,,condition_1,44,0,2023.1.3,2023-10-01_12h37.48.662,,1,Win32,,0.26600000000001955,,44,,1,,,45,001
﻿study_1_pilot,45,condition_1,,2,agent_2,3.38,2.5,081052,2023-10-01_12h37.53.741,,65194bf3855e8baf0247e681,agent_1,study_1,3.38,166.66666666666666,,1:1+2:1,60fd6968ca3c5db3ab68c13b,,,condition_1,45,0,2023.1.3,2023-10-01_12h37.48.662,,2,Win32,,0.22800000000000864,,45,,1,,,46,001
﻿study_1_pilot,46,condition_1,,1,agent_2,3.26,2.03,081052,2023-10-01_12h37.53.741,,65194bf3855e8baf0247e681,agent_1,study_1,2.03,166.66666666666666,,1:1+2:1,60fd6968ca3c5db3ab68c13b,,,condition_1,46,0,2023.1.3,2023-10-01_12h37.48.662,,1,Win32,,0.06100000000003547,,46,,1,,,47,001
